keyResp.keys,keyResp.corr,keyResp.rt,mouseResp.x,mouseResp.y,mouseResp.leftButton,mouseResp.midButton,mouseResp.rightButton,mouseResp.time,mouseResp.clicked_name,trialRespTimes,moveOnKeys.keys,moveOnKeys.rt,PracticeLoop.thisRepN,PracticeLoop.thisTrialN,PracticeLoop.thisN,PracticeLoop.thisIndex,PracticeLoop.ran,onsetTime,thisImage,participant,session,date,expName,psychopyVersion,OS,frameRate,key_resp.keys,mouse.x,mouse.y,mouse.leftButton,mouse.midButton,mouse.rightButton,ExptLoop.thisRepN,ExptLoop.thisTrialN,ExptLoop.thisN,ExptLoop.thisIndex,ExptLoop.ran
c,1,3.0854,,,,,,,,1.7854,space,20.8497,0,0,0,3,1,1.3,images/target_cross.jpg,000,001,2022-04-03_23h43.21.460,choiceRTT,2021.2.3,Win32,60.18657839,,,,,,,,,,,
b,1,2.3942,,,,,,,,0.8942,space,7.4333,0,1,1,4,1,1.5,images/target_plus.jpg,000,001,2022-04-03_23h43.21.460,choiceRTT,2021.2.3,Win32,60.18657839,,,,,,,,,,,
v,1,1.7831,,,,,,,,0.4831,space,5.5251,0,2,2,8,1,1.3,images/target_square.jpg,000,001,2022-04-03_23h43.21.460,choiceRTT,2021.2.3,Win32,60.18657839,,,,,,,,,,,
b,1,1.9016,,,,,,,,0.8016,space,2.816,0,3,3,7,1,1.1,images/target_plus.jpg,000,001,2022-04-03_23h43.21.460,choiceRTT,2021.2.3,Win32,60.18657839,,,,,,,,,,,
c,1,1.9701,,,,,,,,0.4701,space,2.1171,0,4,4,6,1,1.5,images/target_cross.jpg,000,001,2022-04-03_23h43.21.460,choiceRTT,2021.2.3,Win32,60.18657839,,,,,,,,,,,
v,0,2.053,,,,,,,,0.753,space,5.6281,0,5,5,1,1,1.3,images/target_plus.jpg,000,001,2022-04-03_23h43.21.460,choiceRTT,2021.2.3,Win32,60.18657839,,,,,,,,,,,
c,1,1.819,,,,,,,,0.719,space,2.0586,0,6,6,0,1,1.1,images/target_cross.jpg,000,001,2022-04-03_23h43.21.460,choiceRTT,2021.2.3,Win32,60.18657839,,,,,,,,,,,
v,1,2.4267,,,,,,,,1.3267,space,2.05,0,7,7,5,1,1.1,images/target_square.jpg,000,001,2022-04-03_23h43.21.460,choiceRTT,2021.2.3,Win32,60.18657839,,,,,,,,,,,
v,1,1.9359,,,,,,,,0.4359,space,1.5352,0,8,8,2,1,1.5,images/target_square.jpg,000,001,2022-04-03_23h43.21.460,choiceRTT,2021.2.3,Win32,60.18657839,,,,,,,,,,,
v,1,2.1265,,,,,,,,0.6265,,,,,,,,1.5,images/target_square.jpg,000,001,2022-04-03_23h43.21.460,choiceRTT,2021.2.3,Win32,60.18657839,,-0.006510417,-0.264322917,1,0,0,0,0,0,2,1
c,1,1.8603,,,,,,,,0.7603,,,,,,,,1.1,images/target_cross.jpg,000,001,2022-04-03_23h43.21.460,choiceRTT,2021.2.3,Win32,60.18657839,,,,,,,0,1,1,0,1
c,1,2.0589,,,,,,,,0.7589,,,,,,,,1.3,images/target_cross.jpg,000,001,2022-04-03_23h43.21.460,choiceRTT,2021.2.3,Win32,60.18657839,,,,,,,0,2,2,3,1
b,1,1.8737,,,,,,,,0.3737,,,,,,,,1.5,images/target_plus.jpg,000,001,2022-04-03_23h43.21.460,choiceRTT,2021.2.3,Win32,60.18657839,,,,,,,0,3,3,4,1
v,1,1.8042,,,,,,,,0.5042,,,,,,,,1.3,images/target_square.jpg,000,001,2022-04-03_23h43.21.460,choiceRTT,2021.2.3,Win32,60.18657839,,,,,,,0,4,4,8,1
b,1,1.7493,,,,,,,,0.4493,,,,,,,,1.3,images/target_plus.jpg,000,001,2022-04-03_23h43.21.460,choiceRTT,2021.2.3,Win32,60.18657839,,,,,,,0,5,5,1,1
v,1,1.593,,,,,,,,0.493,,,,,,,,1.1,images/target_square.jpg,000,001,2022-04-03_23h43.21.460,choiceRTT,2021.2.3,Win32,60.18657839,,,,,,,0,6,6,5,1
b,1,1.6525,,,,,,,,0.5525,,,,,,,,1.1,images/target_plus.jpg,000,001,2022-04-03_23h43.21.460,choiceRTT,2021.2.3,Win32,60.18657839,,,,,,,0,7,7,7,1
c,1,1.8496,,,,,,,,0.3496,,,,,,,,1.5,images/target_cross.jpg,000,001,2022-04-03_23h43.21.460,choiceRTT,2021.2.3,Win32,60.18657839,,,,,,,0,8,8,6,1
c,1,1.5758,,,,,,,,0.4758,,,,,,,,1.1,images/target_cross.jpg,000,001,2022-04-03_23h43.21.460,choiceRTT,2021.2.3,Win32,60.18657839,,,,,,,1,0,9,0,1
c,1,1.8759,,,,,,,,0.5759,,,,,,,,1.3,images/target_cross.jpg,000,001,2022-04-03_23h43.21.460,choiceRTT,2021.2.3,Win32,60.18657839,,,,,,,1,1,10,3,1
v,0,1.9714,,,,,,,,0.4714,,,,,,,,1.5,images/target_cross.jpg,000,001,2022-04-03_23h43.21.460,choiceRTT,2021.2.3,Win32,60.18657839,,,,,,,1,2,11,6,1
c,0,0.0512,,,,,,,,-1.4488,,,,,,,,1.5,images/target_square.jpg,000,001,2022-04-03_23h43.21.460,choiceRTT,2021.2.3,Win32,60.18657839,,,,,,,1,3,12,2,1
b,1,2.1995,,,,,,,,0.6995,,,,,,,,1.5,images/target_plus.jpg,000,001,2022-04-03_23h43.21.460,choiceRTT,2021.2.3,Win32,60.18657839,,,,,,,1,4,13,4,1
b,1,2.0127,,,,,,,,0.7127,,,,,,,,1.3,images/target_plus.jpg,000,001,2022-04-03_23h43.21.460,choiceRTT,2021.2.3,Win32,60.18657839,,,,,,,1,5,14,1,1
b,0,1.8242,,,,,,,,0.5242,,,,,,,,1.3,images/target_square.jpg,000,001,2022-04-03_23h43.21.460,choiceRTT,2021.2.3,Win32,60.18657839,,,,,,,1,6,15,8,1
v,1,0.0184,,,,,,,,-1.0816,,,,,,,,1.1,images/target_square.jpg,000,001,2022-04-03_23h43.21.460,choiceRTT,2021.2.3,Win32,60.18657839,,,,,,,1,7,16,5,1
b,1,1.8158,,,,,,,,0.7158,,,,,,,,1.1,images/target_plus.jpg,000,001,2022-04-03_23h43.21.460,choiceRTT,2021.2.3,Win32,60.18657839,,,,,,,1,8,17,7,1
