response.keys,response.corr,mouseResp.x,mouseResp.y,mouseResp.leftButton,mouseResp.midButton,mouseResp.rightButton,mouseResp.clicked_name,practiceTrials.thisRepN,practiceTrials.thisTrialN,practiceTrials.thisN,practiceTrials.thisIndex,practiceTrials.ran,practiceTrials.order,isi,xPos,corrAns,participant,session,date,expName,psychopyVersion,frameRate,mainTrials.thisRepN,mainTrials.thisTrialN,mainTrials.thisN,mainTrials.thisIndex,mainTrials.ran,mainTrials.order
,0,0.353703722,-0.039814823,1,0,0,targImage,1,0,8,7,1,7,1,0.375,n,3434343434,001,2022-01-20_12h45.57.555,choiceRTT,3.1.3,60,,,,,,
,0,0.132407423,0.022222215,1,0,0,targImage,1,0,8,2,1,7,1,0.125,b,3434343434,001,2022-01-20_12h45.57.555,choiceRTT,3.1.3,60,,,,,,
,0,0.385185204,0.013888882,1,0,0,targImage,1,0,8,3,1,7,1,0.375,n,3434343434,001,2022-01-20_12h45.57.555,choiceRTT,3.1.3,60,,,,,,
,0,-0.395370363,-0.006481489,1,0,0,targImage,1,0,8,4,1,7,1,-0.375,c,3434343434,001,2022-01-20_12h45.57.555,choiceRTT,3.1.3,60,,,,,,
,0,-0.152777767,-0.020370378,1,0,0,targImage,1,0,8,1,1,7,1,-0.125,v,3434343434,001,2022-01-20_12h45.57.555,choiceRTT,3.1.3,60,,,,,,
,0,-0.152777767,-0.020370378,1,0,0,targImage,1,0,8,5,1,7,1,-0.125,v,3434343434,001,2022-01-20_12h45.57.555,choiceRTT,3.1.3,60,,,,,,
,0,0.158333349,0.009259252,1,0,0,targImage,1,0,8,6,1,7,1,0.125,b,3434343434,001,2022-01-20_12h45.57.555,choiceRTT,3.1.3,60,,,,,,
,0,-0.365740733,-0.02222223,1,0,0,targImage,1,0,8,0,1,7,1,-0.375,c,3434343434,001,2022-01-20_12h45.57.555,choiceRTT,3.1.3,60,,,,,,
,0,-0.320370362,0.018518511,1,0,0,targImage,,,,,,,1.6666,-0.375,c,3434343434,001,2022-01-20_12h45.57.555,choiceRTT,3.1.3,60,1,0,40,12,1,39
,0,0.398148167,0.009259252,1,0,0,targImage,,,,,,,1.6666,0.375,n,3434343434,001,2022-01-20_12h45.57.555,choiceRTT,3.1.3,60,1,0,40,15,1,39
,0,0.398148167,0.009259252,1,0,0,targImage,,,,,,,2.7776,0.375,n,3434343434,001,2022-01-20_12h45.57.555,choiceRTT,3.1.3,60,1,0,40,35,1,39
,0,-0.157407397,0.013888882,1,0,0,targImage,,,,,,,2.7776,-0.125,v,3434343434,001,2022-01-20_12h45.57.555,choiceRTT,3.1.3,60,1,0,40,33,1,39
,0,0.39537039,-0.061111119,1,0,0,targImage,,,,,,,2.111,0.375,n,3434343434,001,2022-01-20_12h45.57.555,choiceRTT,3.1.3,60,1,0,40,23,1,39
,0,0.118518534,0.00277777,1,0,0,targImage,,,,,,,2.9998,0.125,b,3434343434,001,2022-01-20_12h45.57.555,choiceRTT,3.1.3,60,1,0,40,38,1,39
,0,-0.353703696,-0.005555563,1,0,0,targImage,,,,,,,1,-0.375,c,3434343434,001,2022-01-20_12h45.57.555,choiceRTT,3.1.3,60,1,0,40,0,1,39
,0,0.095370385,-0.02685186,1,0,0,targImage,,,,,,,1,0.125,b,3434343434,001,2022-01-20_12h45.57.555,choiceRTT,3.1.3,60,1,0,40,2,1,39
,0,-0.133333322,0.019444437,1,0,0,targImage,,,,,,,2.5554,-0.125,v,3434343434,001,2022-01-20_12h45.57.555,choiceRTT,3.1.3,60,1,0,40,29,1,39
,0,0.3314815,0.008333326,1,0,0,targImage,,,,,,,1,0.375,n,3434343434,001,2022-01-20_12h45.57.555,choiceRTT,3.1.3,60,1,0,40,3,1,39
,0,0.362962982,-0.004629637,1,0,0,targImage,,,,,,,1.2222,0.375,n,3434343434,001,2022-01-20_12h45.57.555,choiceRTT,3.1.3,60,1,0,40,7,1,39
,0,-0.077777766,0.014814808,1,0,0,targImage,,,,,,,1.6666,-0.125,v,3434343434,001,2022-01-20_12h45.57.555,choiceRTT,3.1.3,60,1,0,40,13,1,39
,0,-0.079629618,0.014814808,1,0,0,targImage,,,,,,,2.111,-0.125,v,3434343434,001,2022-01-20_12h45.57.555,choiceRTT,3.1.3,60,1,0,40,21,1,39
,0,0.109259274,0.01203703,1,0,0,targImage,,,,,,,2.3332,0.125,b,3434343434,001,2022-01-20_12h45.57.555,choiceRTT,3.1.3,60,1,0,40,26,1,39
,0,0.415740873,0.057407401,1,0,0,targImage,,,,,,,2.5554,0.375,n,3434343434,001,2022-01-20_12h45.57.555,choiceRTT,3.1.3,60,1,0,40,31,1,39
,0,0.103703718,0.000925918,1,0,0,targImage,,,,,,,1.8888,0.125,b,3434343434,001,2022-01-20_12h45.57.555,choiceRTT,3.1.3,60,1,0,40,18,1,39
,0,0.088888903,0.000925918,1,0,0,targImage,,,,,,,2.111,0.125,b,3434343434,001,2022-01-20_12h45.57.555,choiceRTT,3.1.3,60,1,0,40,22,1,39
,0,0.091666681,0.001851844,1,0,0,targImage,,,,,,,1.4444,0.125,b,3434343434,001,2022-01-20_12h45.57.555,choiceRTT,3.1.3,60,1,0,40,10,1,39
,0,0.306481499,-0.02685186,1,0,0,targImage,,,,,,,1.8888,0.375,n,3434343434,001,2022-01-20_12h45.57.555,choiceRTT,3.1.3,60,1,0,40,19,1,39
,0,0.145370386,0.033333326,1,0,0,targImage,,,,,,,2.5554,0.125,b,3434343434,001,2022-01-20_12h45.57.555,choiceRTT,3.1.3,60,1,0,40,30,1,39
,0,-0.398148141,0.006481474,1,0,0,targImage,,,,,,,1.8888,-0.375,c,3434343434,001,2022-01-20_12h45.57.555,choiceRTT,3.1.3,60,1,0,40,16,1,39
,0,0.401851984,0.031481446,1,0,0,targImage,,,,,,,2.9998,0.375,n,3434343434,001,2022-01-20_12h45.57.555,choiceRTT,3.1.3,60,1,0,40,39,1,39
,0,0.078703718,0.038888882,1,0,0,targImage,,,,,,,2.7776,0.125,b,3434343434,001,2022-01-20_12h45.57.555,choiceRTT,3.1.3,60,1,0,40,34,1,39
,0,-0.139814804,0.03703703,1,0,0,targImage,,,,,,,1.2222,-0.125,v,3434343434,001,2022-01-20_12h45.57.555,choiceRTT,3.1.3,60,1,0,40,5,1,39
,0,0.32222224,-0.015740748,1,0,0,targImage,,,,,,,2.3332,0.375,n,3434343434,001,2022-01-20_12h45.57.555,choiceRTT,3.1.3,60,1,0,40,27,1,39
,0,-0.114814803,0.067592586,1,0,0,targImage,,,,,,,2.3332,-0.125,v,3434343434,001,2022-01-20_12h45.57.555,choiceRTT,3.1.3,60,1,0,40,25,1,39
,0,0.359259278,0.034259252,1,0,0,targImage,,,,,,,1.4444,0.375,n,3434343434,001,2022-01-20_12h45.57.555,choiceRTT,3.1.3,60,1,0,40,11,1,39
,0,-0.334259251,0.033333326,1,0,0,targImage,,,,,,,1.2222,-0.375,c,3434343434,001,2022-01-20_12h45.57.555,choiceRTT,3.1.3,60,1,0,40,4,1,39
,0,-0.419444437,0.003703696,1,0,0,targImage,,,,,,,2.111,-0.375,c,3434343434,001,2022-01-20_12h45.57.555,choiceRTT,3.1.3,60,1,0,40,20,1,39
,0,-0.056481469,0.024074067,1,0,0,targImage,,,,,,,2.9998,-0.125,v,3434343434,001,2022-01-20_12h45.57.555,choiceRTT,3.1.3,60,1,0,40,37,1,39
,0,-0.316666658,0.035185178,1,0,0,targImage,,,,,,,2.5554,-0.375,c,3434343434,001,2022-01-20_12h45.57.555,choiceRTT,3.1.3,60,1,0,40,28,1,39
,0,-0.376851844,0.0324074,1,0,0,targImage,,,,,,,1.4444,-0.375,c,3434343434,001,2022-01-20_12h45.57.555,choiceRTT,3.1.3,60,1,0,40,8,1,39
,0,-0.151851841,0.028703697,1,0,0,targImage,,,,,,,1,-0.125,v,3434343434,001,2022-01-20_12h45.57.555,choiceRTT,3.1.3,60,1,0,40,1,1,39
,0,-0.346296288,0.042592586,1,0,0,targImage,,,,,,,2.7776,-0.375,c,3434343434,001,2022-01-20_12h45.57.555,choiceRTT,3.1.3,60,1,0,40,32,1,39
,0,-0.341666659,0.057407401,1,0,0,targImage,,,,,,,2.3332,-0.375,c,3434343434,001,2022-01-20_12h45.57.555,choiceRTT,3.1.3,60,1,0,40,24,1,39
,0,-0.328703695,0.060185179,1,0,0,targImage,,,,,,,2.9998,-0.375,c,3434343434,001,2022-01-20_12h45.57.555,choiceRTT,3.1.3,60,1,0,40,36,1,39
,0,-0.158333322,0.036111076,1,0,0,targImage,,,,,,,1.4444,-0.125,v,3434343434,001,2022-01-20_12h45.57.555,choiceRTT,3.1.3,60,1,0,40,9,1,39
,0,0.08055557,0.027777771,1,0,0,targImage,,,,,,,1.2222,0.125,b,3434343434,001,2022-01-20_12h45.57.555,choiceRTT,3.1.3,60,1,0,40,6,1,39
,0,-0.12314808,0.014814808,1,0,0,targImage,,,,,,,1.8888,-0.125,v,3434343434,001,2022-01-20_12h45.57.555,choiceRTT,3.1.3,60,1,0,40,17,1,39
,0,0.176851868,-0.010185193,1,0,0,targImage,,,,,,,1.6666,0.125,b,3434343434,001,2022-01-20_12h45.57.555,choiceRTT,3.1.3,60,1,0,40,14,1,39
