response.keys,response.corr,mouseResp.x,mouseResp.y,mouseResp.leftButton,mouseResp.midButton,mouseResp.rightButton,mouseResp.clicked_name,practiceTrials.thisRepN,practiceTrials.thisTrialN,practiceTrials.thisN,practiceTrials.thisIndex,practiceTrials.ran,practiceTrials.order,isi,xPos,corrAns,participant,session,date,expName,psychopyVersion,frameRate,mainTrials.thisRepN,mainTrials.thisTrialN,mainTrials.thisN,mainTrials.thisIndex,mainTrials.ran,mainTrials.order
,0,0.361389974,-0.021563721,1,0,0,targImage,1,0,8,7,1,7,1,0.375,n,CFH0827,001,2022-01-20_12h53.05.438,choiceRTT,3.1.3,60,,,,,,
,0,0.399629991,-0.003452759,1,0,0,targImage,1,0,8,3,1,7,1,0.375,n,CFH0827,001,2022-01-20_12h53.05.438,choiceRTT,3.1.3,60,,,,,,
,0,0.114870605,-0.039342923,1,0,0,targImage,1,0,8,2,1,7,1,0.125,b,CFH0827,001,2022-01-20_12h53.05.438,choiceRTT,3.1.3,60,,,,,,
,0,-0.350514967,-0.034206746,1,0,0,targImage,1,0,8,4,1,7,1,-0.375,c,CFH0827,001,2022-01-20_12h53.05.438,choiceRTT,3.1.3,60,,,,,,
,0,-0.394566243,-0.033320855,1,0,0,targImage,1,0,8,0,1,7,1,-0.375,c,CFH0827,001,2022-01-20_12h53.05.438,choiceRTT,3.1.3,60,,,,,,
,0,-0.145944689,-0.011844923,1,0,0,targImage,1,0,8,5,1,7,1,-0.125,v,CFH0827,001,2022-01-20_12h53.05.438,choiceRTT,3.1.3,60,,,,,,
,0,0.130021023,-0.018849284,1,0,0,targImage,1,0,8,6,1,7,1,0.125,b,CFH0827,001,2022-01-20_12h53.05.438,choiceRTT,3.1.3,60,,,,,,
,0,-0.169683702,-0.000596924,1,0,0,targImage,1,0,8,1,1,7,1,-0.125,v,CFH0827,001,2022-01-20_12h53.05.438,choiceRTT,3.1.3,60,,,,,,
,0,-0.36580858,0.006659037,1,0,0,targImage,,,,,,,1.6666,-0.375,c,CFH0827,001,2022-01-20_12h53.05.438,choiceRTT,3.1.3,60,1,0,40,12,1,39
,0,0.104957682,0.00575002,1,0,0,targImage,,,,,,,1,0.125,b,CFH0827,001,2022-01-20_12h53.05.438,choiceRTT,3.1.3,60,1,0,40,2,1,39
,0,0.356280246,-0.005162421,1,0,0,targImage,,,,,,,2.9998,0.375,n,CFH0827,001,2022-01-20_12h53.05.438,choiceRTT,3.1.3,60,1,0,40,39,1,39
,0,0.183881565,-0.000550571,1,0,0,targImage,,,,,,,2.3332,0.125,b,CFH0827,001,2022-01-20_12h53.05.438,choiceRTT,3.1.3,60,1,0,40,26,1,39
,0,0.183881565,-0.000550571,1,0,0,targImage,,,,,,,1.8888,0.125,b,CFH0827,001,2022-01-20_12h53.05.438,choiceRTT,3.1.3,60,1,0,40,18,1,39
,0,0.371957465,-0.006401435,1,0,0,targImage,,,,,,,1.4444,0.375,n,CFH0827,001,2022-01-20_12h53.05.438,choiceRTT,3.1.3,60,1,0,40,11,1,39
,0,-0.061424425,-0.056138136,1,0,0,targImage,,,,,,,1,-0.125,v,CFH0827,001,2022-01-20_12h53.05.438,choiceRTT,3.1.3,60,1,0,40,1,1,39
,0,-0.062706095,-0.056138136,1,0,0,targImage,,,,,,,2.3332,-0.125,v,CFH0827,001,2022-01-20_12h53.05.438,choiceRTT,3.1.3,60,1,0,40,25,1,39
,0,-0.351838108,-0.048664076,1,0,0,targImage,,,,,,,1.8888,-0.375,c,CFH0827,001,2022-01-20_12h53.05.438,choiceRTT,3.1.3,60,1,0,40,16,1,39
,0,-0.16544203,-0.019179077,1,0,0,targImage,,,,,,,1.4444,-0.125,v,CFH0827,001,2022-01-20_12h53.05.438,choiceRTT,3.1.3,60,1,0,40,9,1,39
,0,0.120716553,-0.011298082,1,0,0,targImage,,,,,,,1.4444,0.125,b,CFH0827,001,2022-01-20_12h53.05.438,choiceRTT,3.1.3,60,1,0,40,10,1,39
,0,0.120716553,-0.011298082,1,0,0,targImage,,,,,,,2.111,0.125,b,CFH0827,001,2022-01-20_12h53.05.438,choiceRTT,3.1.3,60,1,0,40,22,1,39
,0,-0.076884155,-0.00929484,1,0,0,targImage,,,,,,,2.5554,-0.125,v,CFH0827,001,2022-01-20_12h53.05.438,choiceRTT,3.1.3,60,1,0,40,29,1,39
,0,0.113085327,0.007754584,1,0,0,targImage,,,,,,,1.2222,0.125,b,CFH0827,001,2022-01-20_12h53.05.438,choiceRTT,3.1.3,60,1,0,40,6,1,39
,0,0.113085327,0.007754584,1,0,0,targImage,,,,,,,2.5554,0.125,b,CFH0827,001,2022-01-20_12h53.05.438,choiceRTT,3.1.3,60,1,0,40,30,1,39
,0,0.408065728,-0.057909817,1,0,0,targImage,,,,,,,2.7776,0.375,n,CFH0827,001,2022-01-20_12h53.05.438,choiceRTT,3.1.3,60,1,0,40,35,1,39
,0,0.373240696,0.024284295,1,0,0,targImage,,,,,,,1.6666,0.375,n,CFH0827,001,2022-01-20_12h53.05.438,choiceRTT,3.1.3,60,1,0,40,15,1,39
,0,0.373240696,0.024284295,1,0,0,targImage,,,,,,,2.5554,0.375,n,CFH0827,001,2022-01-20_12h53.05.438,choiceRTT,3.1.3,60,1,0,40,31,1,39
,0,0.373240696,0.024284295,1,0,0,targImage,,,,,,,1,0.375,n,CFH0827,001,2022-01-20_12h53.05.438,choiceRTT,3.1.3,60,1,0,40,3,1,39
,0,-0.4423506,-0.056778327,1,0,0,targImage,,,,,,,1.4444,-0.375,c,CFH0827,001,2022-01-20_12h53.05.438,choiceRTT,3.1.3,60,1,0,40,8,1,39
,0,0.127695855,-0.003737047,1,0,0,targImage,,,,,,,2.9998,0.125,b,CFH0827,001,2022-01-20_12h53.05.438,choiceRTT,3.1.3,60,1,0,40,38,1,39
,0,0.127695855,-0.003737047,1,0,0,targImage,,,,,,,1.6666,0.125,b,CFH0827,001,2022-01-20_12h53.05.438,choiceRTT,3.1.3,60,1,0,40,14,1,39
,0,-0.07379442,-0.028089057,1,0,0,targImage,,,,,,,2.9998,-0.125,v,CFH0827,001,2022-01-20_12h53.05.438,choiceRTT,3.1.3,60,1,0,40,37,1,39
,0,-0.075885145,-0.028089057,1,0,0,targImage,,,,,,,2.111,-0.125,v,CFH0827,001,2022-01-20_12h53.05.438,choiceRTT,3.1.3,60,1,0,40,21,1,39
,0,-0.075885145,-0.028089057,1,0,0,targImage,,,,,,,1.6666,-0.125,v,CFH0827,001,2022-01-20_12h53.05.438,choiceRTT,3.1.3,60,1,0,40,13,1,39
,0,-0.075885145,-0.028089057,1,0,0,targImage,,,,,,,1.2222,-0.125,v,CFH0827,001,2022-01-20_12h53.05.438,choiceRTT,3.1.3,60,1,0,40,5,1,39
,0,-0.123260362,-0.036119046,1,0,0,targImage,,,,,,,2.7776,-0.125,v,CFH0827,001,2022-01-20_12h53.05.438,choiceRTT,3.1.3,60,1,0,40,33,1,39
,0,0.327530111,-0.04188246,1,0,0,targImage,,,,,,,2.3332,0.375,n,CFH0827,001,2022-01-20_12h53.05.438,choiceRTT,3.1.3,60,1,0,40,27,1,39
,0,-0.413312988,-0.048186747,1,0,0,targImage,,,,,,,2.111,-0.375,c,CFH0827,001,2022-01-20_12h53.05.438,choiceRTT,3.1.3,60,1,0,40,20,1,39
,0,-0.379460008,-0.026464708,1,0,0,targImage,,,,,,,1,-0.375,c,CFH0827,001,2022-01-20_12h53.05.438,choiceRTT,3.1.3,60,1,0,40,0,1,39
,0,0.412836507,0.010861376,1,0,0,targImage,,,,,,,1.2222,0.375,n,CFH0827,001,2022-01-20_12h53.05.438,choiceRTT,3.1.3,60,1,0,40,7,1,39
,0,-0.334930013,0.003401828,1,0,0,targImage,,,,,,,2.7776,-0.375,c,CFH0827,001,2022-01-20_12h53.05.438,choiceRTT,3.1.3,60,1,0,40,32,1,39
,0,0.358019748,0.01001102,1,0,0,targImage,,,,,,,1.8888,0.375,n,CFH0827,001,2022-01-20_12h53.05.438,choiceRTT,3.1.3,60,1,0,40,19,1,39
,0,-0.349818217,-0.011021118,1,0,0,targImage,,,,,,,2.3332,-0.375,c,CFH0827,001,2022-01-20_12h53.05.438,choiceRTT,3.1.3,60,1,0,40,24,1,39
,0,0.395732015,0.045225186,1,0,0,targImage,,,,,,,2.111,0.375,n,CFH0827,001,2022-01-20_12h53.05.438,choiceRTT,3.1.3,60,1,0,40,23,1,39
,0,-0.091270074,0.055416429,1,0,0,targImage,,,,,,,1.8888,-0.125,v,CFH0827,001,2022-01-20_12h53.05.438,choiceRTT,3.1.3,60,1,0,40,17,1,39
,0,0.136682604,0.024579264,1,0,0,targImage,,,,,,,2.7776,0.125,b,CFH0827,001,2022-01-20_12h53.05.438,choiceRTT,3.1.3,60,1,0,40,34,1,39
,0,-0.398817478,-0.033593479,1,0,0,targImage,,,,,,,2.9998,-0.375,c,CFH0827,001,2022-01-20_12h53.05.438,choiceRTT,3.1.3,60,1,0,40,36,1,39
,0,-0.335031569,-0.01861145,1,0,0,targImage,,,,,,,2.5554,-0.375,c,CFH0827,001,2022-01-20_12h53.05.438,choiceRTT,3.1.3,60,1,0,40,28,1,39
,0,-0.386666599,-0.017962375,1,0,0,targImage,,,,,,,1.2222,-0.375,c,CFH0827,001,2022-01-20_12h53.05.438,choiceRTT,3.1.3,60,1,0,40,4,1,39
