keyResp.keys,keyResp.corr,keyResp.rt,mouseResp.x,mouseResp.y,mouseResp.leftButton,mouseResp.midButton,mouseResp.rightButton,mouseResp.time,mouseResp.clicked_name,trialRespTimes,moveOnKeys.keys,moveOnKeys.rt,PracticeLoop.thisRepN,PracticeLoop.thisTrialN,PracticeLoop.thisN,PracticeLoop.thisIndex,PracticeLoop.ran,onsetTime,thisImage,participant,session,date,expName,psychopyVersion,OS,frameRate,key_resp.keys,key_resp.rt,mouse.x,mouse.y,mouse.leftButton,mouse.midButton,mouse.rightButton,ExptLoop.thisRepN,ExptLoop.thisTrialN,ExptLoop.thisN,ExptLoop.thisIndex,ExptLoop.ran
c,1,4.7136,,,,,,,,3.4136,space,5.9668,0,0,0,3,1,1.3,images/target_cross.jpg,Cutzi Correa,001,2022-04-01_16h11.48.620,choiceRTT,2021.2.3,MacIntel,60.0024001,,,,,,,,,,,,
b,1,2.1884,,,,,,,,0.8884,,,0,1,1,1,1,1.3,images/target_plus.jpg,Cutzi Correa,001,2022-04-01_16h11.48.620,choiceRTT,2021.2.3,MacIntel,60.0024001,,,,,,,,,,,,
b,1,2.4075,,,,,,,,0.9075,space,3.0666,0,2,2,4,1,1.5,images/target_plus.jpg,Cutzi Correa,001,2022-04-01_16h11.48.620,choiceRTT,2021.2.3,MacIntel,60.0024001,,,,,,,,,,,,
c,1,1.8372,,,,,,,,0.7372,space,4.8493,0,3,3,0,1,1.1,images/target_cross.jpg,Cutzi Correa,001,2022-04-01_16h11.48.620,choiceRTT,2021.2.3,MacIntel,60.0024001,,,,,,,,,,,,
v,1,1.9016,,,,,,,,0.6016,space,1.9347,0,4,4,8,1,1.3,images/target_square.jpg,Cutzi Correa,001,2022-04-01_16h11.48.620,choiceRTT,2021.2.3,MacIntel,60.0024001,,,,,,,,,,,,
v,1,1.6857,,,,,,,,0.5857,space,1.4017,0,5,5,5,1,1.1,images/target_square.jpg,Cutzi Correa,001,2022-04-01_16h11.48.620,choiceRTT,2021.2.3,MacIntel,60.0024001,,,,,,,,,,,,
c,1,2.068,,,,,,,,0.568,space,1.2025,0,6,6,6,1,1.5,images/target_cross.jpg,Cutzi Correa,001,2022-04-01_16h11.48.620,choiceRTT,2021.2.3,MacIntel,60.0024001,,,,,,,,,,,,
b,1,1.7417,,,,,,,,0.6417,space,1.5162,0,7,7,7,1,1.1,images/target_plus.jpg,Cutzi Correa,001,2022-04-01_16h11.48.620,choiceRTT,2021.2.3,MacIntel,60.0024001,,,,,,,,,,,,
v,1,2.0885,,,,,,,,0.5885,,,0,8,8,2,1,1.5,images/target_square.jpg,Cutzi Correa,001,2022-04-01_16h11.48.620,choiceRTT,2021.2.3,MacIntel,60.0024001,,,,,,,,,,,,
c,0,1.8493,,,,,,,,0.7493,,,,,,,,1.1,images/target_plus.jpg,Cutzi Correa,001,2022-04-01_16h11.48.620,choiceRTT,2021.2.3,MacIntel,60.0024001,space,8.0905,0.062776286,-0.184980401,0,0,0,0,0,0,7,1
c,1,2.5805,,,,,,,,1.4805,,,,,,,,1.1,images/target_cross.jpg,Cutzi Correa,001,2022-04-01_16h11.48.620,choiceRTT,2021.2.3,MacIntel,60.0024001,,,,,,,,0,1,1,0,1
c,1,2.5655,,,,,,,,1.2655,,,,,,,,1.3,images/target_cross.jpg,Cutzi Correa,001,2022-04-01_16h11.48.620,choiceRTT,2021.2.3,MacIntel,60.0024001,,,,,,,,0,2,2,3,1
c,1,2.1147,,,,,,,,0.6147,,,,,,,,1.5,images/target_cross.jpg,Cutzi Correa,001,2022-04-01_16h11.48.620,choiceRTT,2021.2.3,MacIntel,60.0024001,,,,,,,,0,3,3,6,1
v,1,1.7978,,,,,,,,0.4978,,,,,,,,1.3,images/target_square.jpg,Cutzi Correa,001,2022-04-01_16h11.48.620,choiceRTT,2021.2.3,MacIntel,60.0024001,,,,,,,,0,4,4,8,1
b,1,2.1495,,,,,,,,0.8495,,,,,,,,1.3,images/target_plus.jpg,Cutzi Correa,001,2022-04-01_16h11.48.620,choiceRTT,2021.2.3,MacIntel,60.0024001,,,,,,,,0,5,5,1,1
v,1,1.9614,,,,,,,,0.8614,,,,,,,,1.1,images/target_square.jpg,Cutzi Correa,001,2022-04-01_16h11.48.620,choiceRTT,2021.2.3,MacIntel,60.0024001,,,,,,,,0,6,6,5,1
c,0,2.2807,,,,,,,,0.7807,,,,,,,,1.5,images/target_plus.jpg,Cutzi Correa,001,2022-04-01_16h11.48.620,choiceRTT,2021.2.3,MacIntel,60.0024001,,,,,,,,0,7,7,4,1
v,1,2.3909,,,,,,,,0.8909,,,,,,,,1.5,images/target_square.jpg,Cutzi Correa,001,2022-04-01_16h11.48.620,choiceRTT,2021.2.3,MacIntel,60.0024001,,,,,,,,0,8,8,2,1
c,1,2.1212,,,,,,,,0.8212,,,,,,,,1.3,images/target_cross.jpg,Cutzi Correa,001,2022-04-01_16h11.48.620,choiceRTT,2021.2.3,MacIntel,60.0024001,,,,,,,,1,0,9,3,1
b,1,1.9652,,,,,,,,0.8652,,,,,,,,1.1,images/target_plus.jpg,Cutzi Correa,001,2022-04-01_16h11.48.620,choiceRTT,2021.2.3,MacIntel,60.0024001,,,,,,,,1,1,10,7,1
b,1,2.5325,,,,,,,,1.2325,,,,,,,,1.3,images/target_plus.jpg,Cutzi Correa,001,2022-04-01_16h11.48.620,choiceRTT,2021.2.3,MacIntel,60.0024001,,,,,,,,1,2,11,1,1
c,1,1.8644,,,,,,,,0.7644,,,,,,,,1.1,images/target_cross.jpg,Cutzi Correa,001,2022-04-01_16h11.48.620,choiceRTT,2021.2.3,MacIntel,60.0024001,,,,,,,,1,3,12,0,1
v,1,2.3298,,,,,,,,0.8298,,,,,,,,1.5,images/target_square.jpg,Cutzi Correa,001,2022-04-01_16h11.48.620,choiceRTT,2021.2.3,MacIntel,60.0024001,,,,,,,,1,4,13,2,1
v,1,2.1313,,,,,,,,0.8313,,,,,,,,1.3,images/target_square.jpg,Cutzi Correa,001,2022-04-01_16h11.48.620,choiceRTT,2021.2.3,MacIntel,60.0024001,,,,,,,,1,5,14,8,1
c,1,2.4248,,,,,,,,0.9248,,,,,,,,1.5,images/target_cross.jpg,Cutzi Correa,001,2022-04-01_16h11.48.620,choiceRTT,2021.2.3,MacIntel,60.0024001,,,,,,,,1,6,15,6,1
v,1,1.8471,,,,,,,,0.7471,,,,,,,,1.1,images/target_square.jpg,Cutzi Correa,001,2022-04-01_16h11.48.620,choiceRTT,2021.2.3,MacIntel,60.0024001,,,,,,,,1,7,16,5,1
b,1,2.2789,,,,,,,,0.7789,,,,,,,,1.5,images/target_plus.jpg,Cutzi Correa,001,2022-04-01_16h11.48.620,choiceRTT,2021.2.3,MacIntel,60.0024001,,,,,,,,1,8,17,4,1
