keyResp.keys,keyResp.corr,keyResp.rt,mouseResp.x,mouseResp.y,mouseResp.leftButton,mouseResp.midButton,mouseResp.rightButton,mouseResp.time,mouseResp.clicked_name,trialRespTimes,moveOnKeys.keys,moveOnKeys.rt,PracticeLoop.thisRepN,PracticeLoop.thisTrialN,PracticeLoop.thisN,PracticeLoop.thisIndex,PracticeLoop.ran,onsetTime,thisImage,participant,session,date,expName,psychopyVersion,OS,frameRate,key_resp.keys,mouse.x,mouse.y,mouse.leftButton,mouse.midButton,mouse.rightButton,ExptLoop.thisRepN,ExptLoop.thisTrialN,ExptLoop.thisN,ExptLoop.thisIndex,ExptLoop.ran
v,1,3.1265,,,,,,,,2.0265,space,6.376,0,0,0,5,1,1.1,images/target_square.jpg,s,001,2022-01-25_11h14.32.301,choiceRTT,2021.2.3,Win32,59.97361161,,,,,,,,,,,
b,1,2.7411,,,,,,,,1.4411,space,4.0934,0,1,1,1,1,1.3,images/target_plus.jpg,s,001,2022-01-25_11h14.32.301,choiceRTT,2021.2.3,Win32,59.97361161,,,,,,,,,,,
v,1,4.9224,,,,,,,,3.4224,space,2.7913,0,2,2,2,1,1.5,images/target_square.jpg,s,001,2022-01-25_11h14.32.301,choiceRTT,2021.2.3,Win32,59.97361161,,,,,,,,,,,
b,1,2.616,,,,,,,,1.116,space,2.8804,0,3,3,4,1,1.5,images/target_plus.jpg,s,001,2022-01-25_11h14.32.301,choiceRTT,2021.2.3,Win32,59.97361161,,,,,,,,,,,
b,1,2.214,,,,,,,,1.114,space,2.5461,0,4,4,7,1,1.1,images/target_plus.jpg,s,001,2022-01-25_11h14.32.301,choiceRTT,2021.2.3,Win32,59.97361161,,,,,,,,,,,
c,1,2.3188,,,,,,,,0.8188,space,1.6751,0,5,5,6,1,1.5,images/target_cross.jpg,s,001,2022-01-25_11h14.32.301,choiceRTT,2021.2.3,Win32,59.97361161,,,,,,,,,,,
v,1,1.9876,,,,,,,,0.6876,space,0.9859,0,6,6,8,1,1.3,images/target_square.jpg,s,001,2022-01-25_11h14.32.301,choiceRTT,2021.2.3,Win32,59.97361161,,,,,,,,,,,
c,1,2.0218,,,,,,,,0.9218,space,0.7822,0,7,7,0,1,1.1,images/target_cross.jpg,s,001,2022-01-25_11h14.32.301,choiceRTT,2021.2.3,Win32,59.97361161,,,,,,,,,,,
c,1,2.0132,,,,,,,,0.7132,space,0.6933,0,8,8,3,1,1.3,images/target_cross.jpg,s,001,2022-01-25_11h14.32.301,choiceRTT,2021.2.3,Win32,59.97361161,,,,,,,,,,,
c,0,2.9327,,,,,,,,1.4327,,,,,,,,1.5,images/target_square.jpg,s,001,2022-01-25_11h14.32.301,choiceRTT,2021.2.3,Win32,59.97361161,,0.024074158,-0.263888912,1,0,0,0,0,0,2,1
c,1,3.5602,,,,,,,,2.2602,,,,,,,,1.3,images/target_cross.jpg,s,001,2022-01-25_11h14.32.301,choiceRTT,2021.2.3,Win32,59.97361161,,,,,,,0,1,1,3,1
v,1,1.8216,,,,,,,,0.7216,,,,,,,,1.1,images/target_square.jpg,s,001,2022-01-25_11h14.32.301,choiceRTT,2021.2.3,Win32,59.97361161,,,,,,,0,2,2,5,1
v,1,1.8426,,,,,,,,0.5426,,,,,,,,1.3,images/target_square.jpg,s,001,2022-01-25_11h14.32.301,choiceRTT,2021.2.3,Win32,59.97361161,,,,,,,0,3,3,8,1
c,1,2.3234,,,,,,,,0.8234,,,,,,,,1.5,images/target_cross.jpg,s,001,2022-01-25_11h14.32.301,choiceRTT,2021.2.3,Win32,59.97361161,,,,,,,0,4,4,6,1
b,1,1.6918,,,,,,,,0.5918,,,,,,,,1.1,images/target_plus.jpg,s,001,2022-01-25_11h14.32.301,choiceRTT,2021.2.3,Win32,59.97361161,,,,,,,0,5,5,7,1
b,1,2.3107,,,,,,,,0.8107,,,,,,,,1.5,images/target_plus.jpg,s,001,2022-01-25_11h14.32.301,choiceRTT,2021.2.3,Win32,59.97361161,,,,,,,0,6,6,4,1
b,1,1.7947,,,,,,,,0.4947,,,,,,,,1.3,images/target_plus.jpg,s,001,2022-01-25_11h14.32.301,choiceRTT,2021.2.3,Win32,59.97361161,,,,,,,0,7,7,1,1
c,1,1.8539,,,,,,,,0.7539,,,,,,,,1.1,images/target_cross.jpg,s,001,2022-01-25_11h14.32.301,choiceRTT,2021.2.3,Win32,59.97361161,,,,,,,0,8,8,0,1
b,1,3.3926,,,,,,,,1.8926,,,,,,,,1.5,images/target_plus.jpg,s,001,2022-01-25_11h14.32.301,choiceRTT,2021.2.3,Win32,59.97361161,,,,,,,1,0,9,4,1
c,0,2.0385,,,,,,,,0.7385,,,,,,,,1.3,images/target_square.jpg,s,001,2022-01-25_11h14.32.301,choiceRTT,2021.2.3,Win32,59.97361161,,,,,,,1,1,10,8,1
v,0,3.4219,,,,,,,,2.3219,,,,,,,,1.1,images/target_plus.jpg,s,001,2022-01-25_11h14.32.301,choiceRTT,2021.2.3,Win32,59.97361161,,,,,,,1,2,11,7,1
v,1,2.8752,,,,,,,,1.3752,,,,,,,,1.5,images/target_square.jpg,s,001,2022-01-25_11h14.32.301,choiceRTT,2021.2.3,Win32,59.97361161,,,,,,,1,3,12,2,1
c,1,2.309,,,,,,,,1.209,,,,,,,,1.1,images/target_cross.jpg,s,001,2022-01-25_11h14.32.301,choiceRTT,2021.2.3,Win32,59.97361161,,,,,,,1,4,13,0,1
v,1,2.1892,,,,,,,,1.0892,,,,,,,,1.1,images/target_square.jpg,s,001,2022-01-25_11h14.32.301,choiceRTT,2021.2.3,Win32,59.97361161,,,,,,,1,5,14,5,1
c,1,2.8376,,,,,,,,1.3376,,,,,,,,1.5,images/target_cross.jpg,s,001,2022-01-25_11h14.32.301,choiceRTT,2021.2.3,Win32,59.97361161,,,,,,,1,6,15,6,1
b,1,2.0476,,,,,,,,0.7476,,,,,,,,1.3,images/target_plus.jpg,s,001,2022-01-25_11h14.32.301,choiceRTT,2021.2.3,Win32,59.97361161,,,,,,,1,7,16,1,1
c,1,2.2559,,,,,,,,0.9559,,,,,,,,1.3,images/target_cross.jpg,s,001,2022-01-25_11h14.32.301,choiceRTT,2021.2.3,Win32,59.97361161,,,,,,,1,8,17,3,1
