trial,cat,x,y,cue,resp,rt,condition,subject,stay,block,block_bnd,acc,phase
1,3,141.79,48.5683,2,2,2.5094,1,101,FALSE,1,1,0,1
2,4,157.35,46.1912,2,1,0.9135,1,101,TRUE,1,1,0,1
3,3,140.53,43.491,2,3,0.7445,1,101,TRUE,1,1,1,1
4,3,143.46,47.8455,2,3,1.1293,1,101,TRUE,1,1,1,1
5,3,137.04,39.5931,2,3,0.5868,1,101,TRUE,1,1,1,1
6,3,136.68,39.4373,2,3,0.7863,1,101,TRUE,1,1,1,1
7,3,138.62,53.892,2,3,0.506,1,101,TRUE,1,1,1,1
8,4,165.83,54.9215,2,2,1.957,1,101,TRUE,1,1,0,1
9,3,138.76,51.6964,2,4,0.4332,1,101,TRUE,1,1,0,1
10,3,142.73,63.4497,2,3,0.4124,1,101,TRUE,1,1,1,1
11,3,136.49,43.4168,2,3,0.5788,1,101,TRUE,1,1,1,1
12,3,134.2,39.4104,2,3,0.4425,1,101,TRUE,1,1,1,1
13,3,137.18,88.7738,2,3,0.8954,1,101,TRUE,1,1,1,1
14,4,157.8,56.2454,2,3,1.1703,1,101,TRUE,1,1,0,1
15,4,157.21,47.9077,2,1,0.8631,1,101,TRUE,1,1,0,1
16,4,158.2,61.671,2,4,0.4806,1,101,TRUE,1,1,1,1
17,3,143.98,42.4647,2,3,0.7563,1,101,TRUE,1,1,1,1
18,4,161.16,63.5739,2,4,0.5251,1,101,TRUE,1,1,1,1
19,3,138.62,58.4714,2,3,0.6549,1,101,TRUE,1,1,1,1
20,4,161.6,33.8526,2,4,0.5156,1,101,TRUE,1,1,1,1
21,3,145.59,44.6792,2,3,0.6141,1,101,TRUE,1,1,1,1
22,3,141.85,49.101,2,3,0.8685,1,101,TRUE,1,1,1,1
23,3,136.19,48.5403,2,3,1.1125,1,101,TRUE,1,1,1,1
24,4,159.68,31.5152,2,4,0.6103,1,101,TRUE,1,1,1,1
25,4,162.39,51.1452,2,4,0.4487,1,101,TRUE,1,1,1,1
26,3,133.18,54.2262,2,3,0.8457,1,101,TRUE,1,1,1,1
27,3,141.64,61.3434,2,3,0.6985,1,101,TRUE,1,1,1,1
28,3,138.77,70.8192,2,3,0.7256,1,101,TRUE,1,1,1,1
29,3,139.82,39.3777,2,3,0.767,1,101,TRUE,1,1,1,1
30,4,159.15,35.0036,2,3,0.2793,1,101,TRUE,1,1,0,1
31,4,158.83,54.0806,2,4,0.3283,1,101,TRUE,1,1,1,1
32,3,136.13,66.4964,2,3,0.602,1,101,TRUE,1,1,1,1
33,4,168.01,45.2596,2,4,0.5371,1,101,TRUE,1,1,1,1
34,3,141.15,69.8438,2,3,0.5388,1,101,TRUE,1,1,1,1
35,4,155.01,76.6251,2,4,0.5645,1,101,TRUE,1,1,1,1
36,3,146.32,82.8261,2,3,0.3888,1,101,TRUE,1,1,1,1
37,4,155.89,31.6334,2,4,0.5486,1,101,TRUE,1,1,1,1
38,3,138.47,36.5273,2,3,0.5738,1,101,TRUE,1,1,1,1
39,3,139.15,27.3312,2,3,0.6859,1,101,TRUE,1,1,1,1
40,3,137.9,53.1012,2,3,0.5776,1,101,TRUE,1,1,1,1
41,4,160.08,53.3048,2,4,0.5693,1,101,TRUE,1,1,1,1
42,4,164.95,43.6023,2,4,0.4976,1,101,TRUE,1,1,1,1
43,4,151.86,33.7778,2,4,0.5486,1,101,TRUE,1,1,1,1
44,4,161.94,27.6763,2,4,0.6297,1,101,TRUE,1,1,1,1
45,3,138.62,49.2448,2,3,1.5233,1,101,TRUE,1,1,1,1
46,3,139.58,60.5155,2,3,0.381,1,101,TRUE,1,1,1,1
47,4,159.77,41.7433,2,4,1.3247,1,101,TRUE,1,1,1,1
48,3,145.81,54.7016,2,3,0.6779,1,101,TRUE,1,1,1,1
49,3,138.6,37.2869,2,3,0.4335,1,101,TRUE,1,1,1,1
50,3,143.56,56.4515,2,3,0.4312,1,101,TRUE,1,1,1,1
51,3,145.95,31.9188,2,2,1.7183,1,101,TRUE,2,1,0,1
52,4,155.84,42.8692,2,3,0.8127,1,101,TRUE,2,1,0,1
53,4,167.24,69.8085,2,4,0.5042,1,101,TRUE,2,1,1,1
54,4,157.34,45.1868,2,4,0.4945,1,101,TRUE,2,1,1,1
55,3,140.24,45.2214,2,3,0.4861,1,101,TRUE,2,1,1,1
56,4,160.03,61.5225,2,4,0.514,1,101,TRUE,2,1,1,1
57,3,144.91,49.0327,2,3,0.6525,1,101,TRUE,2,1,1,1
58,4,153.37,44.189,2,4,0.5613,1,101,TRUE,2,1,1,1
59,3,132.72,66.2237,2,3,0.2976,1,101,TRUE,2,1,1,1
60,4,160.57,37.9317,2,4,0.6929,1,101,TRUE,2,1,1,1
61,4,164.16,73.5159,2,4,0.7758,1,101,TRUE,2,1,1,1
62,4,158.9,49.5856,2,4,0.5993,1,101,TRUE,2,1,1,1
63,3,136.73,56.0203,2,3,0.5662,1,101,TRUE,2,1,1,1
64,4,156.26,61.6117,2,4,0.2544,1,101,TRUE,2,1,1,1
65,4,161.82,46.359,2,3,0.2037,1,101,TRUE,2,1,0,1
66,4,166.66,39.1131,2,4,0.5996,1,101,TRUE,2,1,1,1
67,3,143.63,45.5858,2,3,0.5266,1,101,TRUE,2,1,1,1
68,3,137.19,73.0392,2,3,0.5603,1,101,TRUE,2,1,1,1
69,3,142.38,38.7402,2,3,0.8005,1,101,TRUE,2,1,1,1
70,4,158.56,14.8164,2,4,1.2153,1,101,TRUE,2,1,1,1
71,3,144.85,82.3586,2,3,0.6692,1,101,TRUE,2,1,1,1
72,3,140.82,28.9487,2,3,1.1056,1,101,TRUE,2,1,1,1
73,3,138.88,35.4286,2,3,0.4842,1,101,TRUE,2,1,1,1
74,3,140.87,63.4249,2,3,0.488,1,101,TRUE,2,1,1,1
75,3,143.98,55.3193,2,3,0.3635,1,101,TRUE,2,1,1,1
76,3,136.67,40.2994,2,3,0.4039,1,101,TRUE,2,1,1,1
77,3,134.85,53.453,2,3,0.6111,1,101,TRUE,2,1,1,1
78,4,160.59,66.457,2,4,0.5456,1,101,TRUE,2,1,1,1
79,4,158.98,62.7649,2,4,0.4427,1,101,TRUE,2,1,1,1
80,3,134.97,49.9403,2,3,0.6075,1,101,TRUE,2,1,1,1
81,4,161.67,40.2926,2,4,0.5738,1,101,TRUE,2,1,1,1
82,4,163.91,37.1671,2,4,0.5502,1,101,TRUE,2,1,1,1
83,4,157.84,45.4406,2,4,0.6393,1,101,TRUE,2,1,1,1
84,3,143.44,27.9259,2,3,0.605,1,101,TRUE,2,1,1,1
85,3,143.68,24.2725,2,3,0.3798,1,101,TRUE,2,1,1,1
86,3,146.2,49.8498,2,3,0.4997,1,101,TRUE,2,1,1,1
87,3,144.98,30.2468,2,3,0.4387,1,101,TRUE,2,1,1,1
88,3,140.01,59.7117,2,3,0.4524,1,101,TRUE,2,1,1,1
89,4,160.63,70.0289,2,4,0.4736,1,101,TRUE,2,1,1,1
90,4,155.64,43.0604,2,4,0.374,1,101,TRUE,2,1,1,1
91,3,140.45,38.711,2,4,0.3497,1,101,TRUE,2,1,0,1
92,4,160.1,49.3579,2,4,0.5882,1,101,TRUE,2,1,1,1
93,3,134.75,63.5737,2,3,0.468,1,101,TRUE,2,1,1,1
94,3,140.49,49.0823,2,3,0.3442,1,101,TRUE,2,1,1,1
95,4,159.58,56.8492,2,4,0.4575,1,101,TRUE,2,1,1,1
96,3,139.73,63.7472,2,3,0.6778,1,101,TRUE,2,1,1,1
97,3,144.47,40.5236,2,3,0.3534,1,101,TRUE,2,1,1,1
98,4,158.37,65.6065,2,4,0.4986,1,101,TRUE,2,1,1,1
99,3,135.13,20.9297,2,3,0.7737,1,101,TRUE,2,1,1,1
100,3,141.67,58.4027,2,3,0.5578,1,101,TRUE,2,1,1,1
101,1,43.06,53.5981,1,2,1.5005,1,101,FALSE,3,2,0,2
102,2,66.96,60.594,1,1,0.3082,1,101,TRUE,3,2,0,2
103,2,45.26,35.8385,1,1,0.4837,1,101,TRUE,3,2,0,2
104,1,34.77,48.009,1,1,1.0206,1,101,TRUE,3,2,1,2
105,2,71.28,48.5884,1,3,1.4026,1,101,TRUE,3,2,0,2
106,1,46.8,55.4938,1,1,0.7742,1,101,TRUE,3,2,1,2
107,1,62.35,68.6008,1,2,0.8854,1,101,TRUE,3,2,0,2
108,1,40.42,62.1252,1,1,1.0701,1,101,TRUE,3,2,1,2
109,2,42.19,27.7762,1,3,1.4021,1,101,TRUE,3,2,0,2
110,1,50.37,56.2839,1,4,1.1415,1,101,TRUE,3,2,0,2
111,1,47.64,58.6239,1,2,0.5711,1,101,TRUE,3,2,0,2
112,1,43.79,57.3834,1,1,0.3041,1,101,TRUE,3,2,1,2
113,2,59.46,45.2104,1,2,0.8354,1,101,TRUE,3,2,1,2
114,2,71.93,57.6288,1,3,0.585,1,101,TRUE,3,2,0,2
115,2,31.63,21.1952,1,1,0.5173,1,101,TRUE,3,2,0,2
116,1,63.05,83.0385,1,2,0.6611,1,101,TRUE,3,2,0,2
117,1,31.57,56.2565,1,1,0.8384,1,101,TRUE,3,2,1,2
118,2,57.11,44.5503,1,2,2.8119,1,101,TRUE,3,2,1,2
119,2,57,41.4863,1,2,1.5443,1,101,TRUE,3,2,1,2
120,2,49.2,28.7709,1,1,2.0807,1,101,TRUE,3,2,0,2
121,1,44.85,58.2915,1,1,1.8643,1,101,TRUE,3,2,1,2
122,2,49.38,35.2368,1,1,2.1716,1,101,TRUE,3,2,0,2
123,1,46.96,63.4907,1,1,0.4394,1,101,TRUE,3,2,1,2
124,1,39.78,56.6358,1,1,1.221,1,101,TRUE,3,2,1,2
125,2,64.29,49.784,1,4,1.5548,1,101,TRUE,3,2,0,2
126,2,70.89,56.7536,1,4,0.9116,1,101,TRUE,3,2,0,2
127,2,37.32,26.2456,1,1,0.7587,1,101,TRUE,3,2,0,2
128,2,44.32,33.6858,1,1,0.612,1,101,TRUE,3,2,0,2
129,2,58.79,48.5076,1,2,0.4316,1,101,TRUE,3,2,1,2
130,1,39.61,64.9724,1,1,1.0614,1,101,TRUE,3,2,1,2
131,1,35.29,49.6903,1,1,0.8651,1,101,TRUE,3,2,1,2
132,2,59.13,46.6402,1,3,1.1093,1,101,TRUE,3,2,0,2
133,1,54.91,68.0724,1,4,0.5964,1,101,TRUE,3,2,0,2
134,2,49.96,38.3514,1,3,0.5845,1,101,TRUE,3,2,0,2
135,1,52.26,61.8207,1,2,0.653,1,101,TRUE,3,2,0,2
136,2,65.44,59.1892,1,3,0.8234,1,101,TRUE,3,2,0,2
137,2,37.19,18.7038,1,1,0.746,1,101,TRUE,3,2,0,2
138,1,56.43,67.3414,1,2,0.7279,1,101,TRUE,3,2,0,2
139,1,49.06,63.4194,1,3,0.3425,1,101,TRUE,3,2,0,2
140,2,48.1,36.7555,1,4,0.7648,1,101,TRUE,3,2,0,2
141,2,66.24,55.8249,1,3,0.7222,1,101,TRUE,3,2,0,2
142,1,42.94,62.5351,1,3,0.4328,1,101,TRUE,3,2,0,2
143,2,65.84,52.3953,1,3,0.5478,1,101,TRUE,3,2,0,2
144,2,60.6,45.443,1,3,0.4018,1,101,TRUE,3,2,0,2
145,2,52.64,43.8428,1,2,0.6702,1,101,TRUE,3,2,1,2
146,1,66.98,72.4467,1,4,0.6346,1,101,TRUE,3,2,0,2
147,1,30.38,46.4895,1,3,0.8052,1,101,TRUE,3,2,0,2
148,1,28.63,41.6027,1,3,0.4566,1,101,TRUE,3,2,0,2
149,2,49.2,31.3631,1,2,0.618,1,101,TRUE,3,2,1,2
150,2,56.61,44.4761,1,4,1.5284,1,101,TRUE,3,2,0,2
151,1,37.53,43.4336,1,1,0.7468,1,101,TRUE,4,2,1,2
152,1,53.52,54.6029,1,2,0.5958,1,101,TRUE,4,2,0,2
153,2,59.06,48.5935,1,2,0.6078,1,101,TRUE,4,2,1,2
154,2,60.77,44.9936,1,3,2.1182,1,101,TRUE,4,2,0,2
155,2,62.42,47.1002,1,4,0.7163,1,101,TRUE,4,2,0,2
156,2,37.15,24.716,1,1,0.5799,1,101,TRUE,4,2,0,2
157,1,33.71,52.5675,1,1,0.5844,1,101,TRUE,4,2,1,2
158,2,64.66,50.7399,1,2,0.7762,1,101,TRUE,4,2,1,2
159,2,52.51,36.8576,1,3,0.4156,1,101,TRUE,4,2,0,2
160,2,68.33,52.9045,1,2,0.6193,1,101,TRUE,4,2,1,2
161,2,38.19,27.2222,1,1,1.6176,1,101,TRUE,4,2,0,2
162,2,45.08,37.8588,1,2,0.6522,1,101,TRUE,4,2,1,2
163,2,61.61,48.0719,1,2,0.8971,1,101,TRUE,4,2,1,2
164,1,52.11,59.701,1,2,1.148,1,101,TRUE,4,2,0,2
165,1,26.3,41.6454,1,2,0.5775,1,101,TRUE,4,2,0,2
166,1,65.29,81.6581,1,2,0.7825,1,101,TRUE,4,2,0,2
167,1,43.25,59.1482,1,2,1.1549,1,101,TRUE,4,2,0,2
168,1,33.95,47.0529,1,1,0.64,1,101,TRUE,4,2,1,2
169,2,66.9,45.0416,1,2,1.1975,1,101,TRUE,4,2,1,2
170,1,29.54,37.0951,1,1,0.6359,1,101,TRUE,4,2,1,2
171,1,38.48,52.06,1,1,0.8896,1,101,TRUE,4,2,1,2
172,1,51.21,56.8799,1,2,1.4853,1,101,TRUE,4,2,0,2
173,2,54.45,49.3125,1,2,0.6611,1,101,TRUE,4,2,1,2
174,2,45.73,34.5846,1,1,0.9855,1,101,TRUE,4,2,0,2
175,2,53.62,43.4221,1,4,0.694,1,101,TRUE,4,2,0,2
176,1,33.99,45.2383,1,3,0.3342,1,101,TRUE,4,2,0,2
177,1,36.1,47.6851,1,1,1.0771,1,101,TRUE,4,2,1,2
178,2,62.3,53.0643,1,2,3.0963,1,101,TRUE,4,2,1,2
179,2,49.97,37.8711,1,2,0.7936,1,101,TRUE,4,2,1,2
180,2,63.04,45.0259,1,2,0.4242,1,101,TRUE,4,2,1,2
181,1,56.62,75.5399,1,2,0.558,1,101,TRUE,4,2,0,2
182,1,30.18,53.1012,1,1,0.3235,1,101,TRUE,4,2,1,2
183,1,20.93,34.0375,1,1,0.4859,1,101,TRUE,4,2,1,2
184,2,51.53,32.7494,1,2,0.8579,1,101,TRUE,4,2,1,2
185,1,47.03,57.4335,1,2,0.5506,1,101,TRUE,4,2,0,2
186,2,53.76,41.5325,1,3,0.2047,1,101,TRUE,4,2,0,2
187,1,42.2,56.2748,1,4,0.1283,1,101,TRUE,4,2,0,2
188,2,40.9,25.3905,1,1,0.2957,1,101,TRUE,4,2,0,2
189,1,44.11,60.8159,1,2,0.3999,1,101,TRUE,4,2,0,2
190,2,42.95,37.3141,1,3,0.484,1,101,TRUE,4,2,0,2
191,1,47.21,52.582,1,4,0.3729,1,101,TRUE,4,2,0,2
192,2,67.75,55.5942,1,1,1.9622,1,101,TRUE,4,2,0,2
193,2,43.5,28.2389,1,2,0.5583,1,101,TRUE,4,2,1,2
194,1,47.08,60.2644,1,4,0.4226,1,101,TRUE,4,2,0,2
195,1,38.17,52,1,1,0.3376,1,101,TRUE,4,2,1,2
196,2,56.55,43.3002,1,2,0.4915,1,101,TRUE,4,2,1,2
197,2,55.14,39.7285,1,1,0.4544,1,101,TRUE,4,2,0,2
198,1,32.12,52.0736,1,2,0.3682,1,101,TRUE,4,2,0,2
199,2,43.74,22.5241,1,1,0.3256,1,101,TRUE,4,2,0,2
200,1,34.39,50.8746,1,1,0.3327,1,101,TRUE,4,2,1,2
201,1,36.06,47.5755,1,1,0.7004,1,101,TRUE,5,3,1,2
202,1,41.12,55.2462,1,1,1.1053,1,101,TRUE,5,3,1,2
203,2,52.8,44.5131,1,2,0.8417,1,101,TRUE,5,3,1,2
204,1,40.32,58.7675,1,2,0.9106,1,101,TRUE,5,3,0,2
205,2,57.71,41.4789,1,1,1.2699,1,101,TRUE,5,3,0,2
206,2,45.03,33.2449,1,2,0.4789,1,101,TRUE,5,3,1,2
207,2,60.74,45.9929,1,1,0.3465,1,101,TRUE,5,3,0,2
208,1,48.44,61.2359,1,2,0.9528,1,101,TRUE,5,3,0,2
209,1,46.31,53.5411,1,1,0.9427,1,101,TRUE,5,3,1,2
210,2,55.59,41.6092,1,2,0.5911,1,101,TRUE,5,3,1,2
211,1,58.51,72.6155,1,1,0.6782,1,101,TRUE,5,3,1,2
212,1,40.93,51.1754,1,2,1.0579,1,101,TRUE,5,3,0,2
213,1,22.2,31.8968,1,1,0.795,1,101,TRUE,5,3,1,2
214,2,44.69,32.6865,1,1,1.2737,1,101,TRUE,5,3,0,2
215,1,31.81,46.119,1,1,0.642,1,101,TRUE,5,3,1,2
216,2,50.45,36.9634,1,2,0.5511,1,101,TRUE,5,3,1,2
217,1,39.53,49.3188,1,1,0.7841,1,101,TRUE,5,3,1,2
218,1,57.88,65.1439,1,2,0.5676,1,101,TRUE,5,3,0,2
219,1,51.83,68.122,1,2,1.1171,1,101,TRUE,5,3,0,2
220,2,51.11,34.233,1,2,0.9721,1,101,TRUE,5,3,1,2
221,2,79.88,58.9603,1,2,0.684,1,101,TRUE,5,3,1,2
222,1,21.6,40.3945,1,1,0.4636,1,101,TRUE,5,3,1,2
223,2,58.3,41.2841,1,2,1.02,1,101,TRUE,5,3,1,2
224,1,38.57,42.4299,1,1,0.5621,1,101,TRUE,5,3,1,2
225,1,46.78,58.7514,1,1,1.0423,1,101,TRUE,5,3,1,2
226,2,41.18,32.85,1,2,1.0391,1,101,TRUE,5,3,1,2
227,2,73.07,65.7769,1,1,1.2043,1,101,TRUE,5,3,0,2
228,1,52.42,68.5898,1,1,0.6313,1,101,TRUE,5,3,1,2
229,2,52.34,37.5544,1,1,0.4767,1,101,TRUE,5,3,0,2
230,2,76.76,54.1692,1,2,0.3098,1,101,TRUE,5,3,1,2
231,2,58.24,44.4643,1,2,0.7284,1,101,TRUE,5,3,1,2
232,1,31.83,47.5603,1,2,0.4979,1,101,TRUE,5,3,0,2
233,2,76.64,56.6152,1,1,0.41,1,101,TRUE,5,3,0,2
234,2,68.98,58.2933,1,2,0.3015,1,101,TRUE,5,3,1,2
235,1,57.61,69.7033,1,2,0.5686,1,101,TRUE,5,3,0,2
236,1,52.27,67.9568,1,1,0.4704,1,101,TRUE,5,3,1,2
237,1,43.19,54.79,1,1,0.4345,1,101,TRUE,5,3,1,2
238,2,54.08,30.5213,1,2,0.9524,1,101,TRUE,5,3,1,2
239,1,62.08,77.808,1,2,0.3693,1,101,TRUE,5,3,0,2
240,2,46.63,40.3175,1,1,0.7508,1,101,TRUE,5,3,0,2
241,2,40.96,30.7197,1,2,0.4128,1,101,TRUE,5,3,1,2
242,2,62.96,47.6931,1,2,0.7952,1,101,TRUE,5,3,1,2
243,2,65.25,46.9112,1,2,0.7222,1,101,TRUE,5,3,1,2
244,1,46.58,58.4381,1,2,0.3643,1,101,TRUE,5,3,0,2
245,1,31.98,44.462,1,2,0.0658,1,101,TRUE,5,3,0,2
246,1,50,59.1192,1,1,0.428,1,101,TRUE,5,3,1,2
247,1,45.63,60.533,1,1,1.4415,1,101,TRUE,5,3,1,2
248,2,55.25,37.1987,1,2,1.9258,1,101,TRUE,5,3,1,2
249,2,64.21,55.3554,1,2,2.023,1,101,TRUE,5,3,1,2
250,1,36.24,59.3055,1,2,0.5964,1,101,TRUE,5,3,0,2
251,1,44.7,60.8019,1,1,0.9435,1,101,TRUE,6,3,1,2
252,2,51.34,40.2516,1,2,0.3363,1,101,TRUE,6,3,1,2
253,1,27.19,37.1601,1,1,0.2902,1,101,TRUE,6,3,1,2
254,1,54.83,67.3295,1,2,0.3661,1,101,TRUE,6,3,0,2
255,1,33.11,47.1488,1,1,0.0676,1,101,TRUE,6,3,1,2
256,2,49.08,41.1032,1,2,1.5524,1,101,TRUE,6,3,1,2
257,2,67.37,48.246,1,1,0.4568,1,101,TRUE,6,3,0,2
258,1,43.94,55.0103,1,2,0.5222,1,101,TRUE,6,3,0,2
259,2,59.71,45.4792,1,2,1.0409,1,101,TRUE,6,3,1,2
260,1,57.77,70.291,1,2,0.5106,1,101,TRUE,6,3,0,2
261,2,48.27,43.5102,1,1,0.4218,1,101,TRUE,6,3,0,2
262,2,53.29,36.6963,1,2,0.2967,1,101,TRUE,6,3,1,2
263,2,54.9,47.9243,1,1,0.7879,1,101,TRUE,6,3,0,2
264,2,49.78,38.3895,1,2,0.288,1,101,TRUE,6,3,1,2
265,1,49.26,73.6872,1,1,0.2358,1,101,TRUE,6,3,1,2
266,2,58.87,45.053,1,2,0.2258,1,101,TRUE,6,3,1,2
267,1,43.59,63.9925,1,1,0.6958,1,101,TRUE,6,3,1,2
268,2,65.24,51.0587,1,2,0.4747,1,101,TRUE,6,3,1,2
269,1,46.08,53.2907,1,1,0.4783,1,101,TRUE,6,3,1,2
270,2,52.73,43.9275,1,2,0.4741,1,101,TRUE,6,3,1,2
271,2,60.17,44.6186,1,1,0.3499,1,101,TRUE,6,3,0,2
272,1,37.2,53.0411,1,1,0.6043,1,101,TRUE,6,3,1,2
273,1,41.68,58.4161,1,1,0.539,1,101,TRUE,6,3,1,2
274,2,43.29,32.8197,1,2,0.6369,1,101,TRUE,6,3,1,2
275,2,67.18,48.7084,1,2,0.6983,1,101,TRUE,6,3,1,2
276,2,50.18,36.2137,1,2,0.5815,1,101,TRUE,6,3,1,2
277,2,56.79,46.4723,1,2,0.8051,1,101,TRUE,6,3,1,2
278,1,52.83,59.6936,1,1,0.8199,1,101,TRUE,6,3,1,2
279,2,48.94,33.9898,1,2,0.5299,1,101,TRUE,6,3,1,2
280,1,43.62,52.9729,1,1,1.0357,1,101,TRUE,6,3,1,2
281,2,40.41,22.4533,1,2,0.497,1,101,TRUE,6,3,1,2
282,1,41.94,54.1238,1,1,0.5801,1,101,TRUE,6,3,1,2
283,2,62.84,54.9045,1,1,1.0356,1,101,TRUE,6,3,0,2
284,1,39.48,58.4289,1,1,0.5903,1,101,TRUE,6,3,1,2
285,1,54.37,64.6515,1,1,0.4858,1,101,TRUE,6,3,1,2
286,1,40.08,59.0949,1,1,0.9455,1,101,TRUE,6,3,1,2
287,1,47.3,57.9623,1,2,0.6021,1,101,TRUE,6,3,0,2
288,1,25.18,46.1766,1,1,0.7985,1,101,TRUE,6,3,1,2
289,2,71.73,53.7933,1,1,0.7492,1,101,TRUE,6,3,0,2
290,1,32.32,45.107,1,1,0.9713,1,101,TRUE,6,3,1,2
291,2,53.03,45.0345,1,2,0.9792,1,101,TRUE,6,3,1,2
292,1,48.2,59.6551,1,1,0.7147,1,101,TRUE,6,3,1,2
293,1,16.25,35.6217,1,2,0.9969,1,101,TRUE,6,3,0,2
294,2,65.32,51.1645,1,2,0.8164,1,101,TRUE,6,3,1,2
295,2,53.05,41.5715,1,2,0.5828,1,101,TRUE,6,3,1,2
296,2,29.59,18.5606,1,1,0.6144,1,101,TRUE,6,3,0,2
297,1,47.33,65.2807,1,2,0.6017,1,101,TRUE,6,3,0,2
298,2,56.57,46.068,1,2,1.0379,1,101,TRUE,6,3,1,2
299,1,37.81,56.4714,1,2,0.6431,1,101,TRUE,6,3,0,2
300,2,51.09,36.2234,1,1,0.6211,1,101,TRUE,6,3,0,2
301,1,48.73,61.2276,1,1,0.7039,1,101,TRUE,7,4,1,2
302,1,55.1,73.0729,1,1,1.1227,1,101,TRUE,7,4,1,2
303,1,41.73,63.1552,1,1,0.5324,1,101,TRUE,7,4,1,2
304,1,63.49,80.8734,1,1,0.3342,1,101,TRUE,7,4,1,2
305,1,50.68,58.3466,1,1,0.7679,1,101,TRUE,7,4,1,2
306,2,56.08,41.8706,1,1,0.6083,1,101,TRUE,7,4,0,2
307,2,46.81,31.3795,1,2,0.3957,1,101,TRUE,7,4,1,2
308,1,39.2,58.7337,1,2,0.0906,1,101,TRUE,7,4,0,2
309,2,49.17,25.2887,1,1,0.9071,1,101,TRUE,7,4,0,2
310,2,74.43,63.0726,1,2,0.2183,1,101,TRUE,7,4,1,2
311,2,66.25,57.6129,1,2,0.993,1,101,TRUE,7,4,1,2
312,2,64.96,46.2138,1,2,0.7678,1,101,TRUE,7,4,1,2
313,1,24.93,36.8585,1,1,2.0241,1,101,TRUE,7,4,1,2
314,1,67.04,83.1983,1,2,1.013,1,101,TRUE,7,4,0,2
315,1,69.24,76.5224,1,1,0.6802,1,101,TRUE,7,4,1,2
316,2,57.64,39.3685,1,2,0.5479,1,101,TRUE,7,4,1,2
317,1,45.98,50.4426,1,1,0.9888,1,101,TRUE,7,4,1,2
318,2,50.36,34.0384,1,3,0.0441,1,101,TRUE,7,4,0,2
319,1,60.84,68.1804,1,2,0.5986,1,101,TRUE,7,4,0,2
320,1,34.23,52.8899,1,2,0.259,1,101,TRUE,7,4,0,2
321,2,61.03,38.79,1,2,0.5804,1,101,TRUE,7,4,1,2
322,2,66.96,55.1141,1,2,1.2603,1,101,TRUE,7,4,1,2
323,1,65.73,72.9356,1,2,0.6161,1,101,TRUE,7,4,0,2
324,1,42.93,62.7258,1,1,0.5956,1,101,TRUE,7,4,1,2
325,2,42.21,35.1242,1,1,0.7146,1,101,TRUE,7,4,0,2
326,1,51.3,67.1102,1,2,0.3698,1,101,TRUE,7,4,0,2
327,2,49.41,33.1204,1,2,0.5434,1,101,TRUE,7,4,1,2
328,1,26.31,38.1813,1,1,0.6485,1,101,TRUE,7,4,1,2
329,2,60.29,57.4888,1,2,0.7173,1,101,TRUE,7,4,1,2
330,2,64.7,55.5722,1,2,0.3997,1,101,TRUE,7,4,1,2
331,1,35.33,49.1031,1,1,0.9347,1,101,TRUE,7,4,1,2
332,2,55.64,48.7739,1,2,0.8001,1,101,TRUE,7,4,1,2
333,2,58.2,46.0994,1,1,0.631,1,101,TRUE,7,4,0,2
334,2,45.14,31.1446,1,2,0.5377,1,101,TRUE,7,4,1,2
335,2,56.69,42.4037,1,2,0.6834,1,101,TRUE,7,4,1,2
336,1,62.51,65.278,1,2,0.6629,1,101,TRUE,7,4,0,2
337,1,50.75,65.562,1,1,0.7203,1,101,TRUE,7,4,1,2
338,1,45.46,64.2695,1,1,0.7787,1,101,TRUE,7,4,1,2
339,2,62.38,51.2034,1,1,0.546,1,101,TRUE,7,4,0,2
340,1,31.46,41.625,1,2,0.7043,1,101,TRUE,7,4,0,2
341,1,43.11,53.9835,1,1,0.7116,1,101,TRUE,7,4,1,2
342,2,55.47,44.7599,1,2,1.0737,1,101,TRUE,7,4,1,2
343,2,50.11,39.842,1,1,0.7658,1,101,TRUE,7,4,0,2
344,2,56.67,53.0573,1,2,0.5712,1,101,TRUE,7,4,1,2
345,1,43.2,55.7524,1,2,0.7233,1,101,TRUE,7,4,0,2
346,1,32.95,49.0717,1,1,0.3545,1,101,TRUE,7,4,1,2
347,1,39.91,59.9886,1,1,0.6992,1,101,TRUE,7,4,1,2
348,2,42.65,25.7749,1,2,0.8222,1,101,TRUE,7,4,1,2
349,2,61.48,53.29,1,2,0.8282,1,101,TRUE,7,4,1,2
350,2,59.57,42.0453,1,2,0.4576,1,101,TRUE,7,4,1,2
351,1,44.98,58.2029,1,2,0.651,1,101,TRUE,8,4,0,2
352,2,46.43,35.241,1,1,0.0129,1,101,TRUE,8,4,0,2
353,1,32.48,39.5834,1,1,0.1926,1,101,TRUE,8,4,1,2
354,2,64.05,52.4557,1,2,0.5761,1,101,TRUE,8,4,1,2
355,2,58.08,38.211,1,2,0.5998,1,101,TRUE,8,4,1,2
356,2,50.35,40.0382,1,1,0.4788,1,101,TRUE,8,4,0,2
357,2,60.06,38.865,1,2,0.9036,1,101,TRUE,8,4,1,2
358,2,71.79,56.1119,1,2,0.6185,1,101,TRUE,8,4,1,2
359,2,52.93,37.5122,1,2,0.3926,1,101,TRUE,8,4,1,2
360,2,59.54,43.0791,1,2,1.472,1,101,TRUE,8,4,1,2
361,1,28.89,46.0565,1,1,1.441,1,101,TRUE,8,4,1,2
362,2,66.14,49.9812,1,2,0.4639,1,101,TRUE,8,4,1,2
363,2,42.56,33.1629,1,2,0.9562,1,101,TRUE,8,4,1,2
364,1,57.05,71.5351,1,1,2.093,1,101,TRUE,8,4,1,2
365,1,41.52,56.1334,1,2,0.5668,1,101,TRUE,8,4,0,2
366,1,36.65,54.0013,1,1,0.3563,1,101,TRUE,8,4,1,2
367,2,52.43,44.0622,1,2,1.1255,1,101,TRUE,8,4,1,2
368,2,63.93,56.556,1,1,1.5267,1,101,TRUE,8,4,0,2
369,1,41.63,52.1208,1,2,2.0048,1,101,TRUE,8,4,0,2
370,2,60.21,41.7163,1,2,1.0551,1,101,TRUE,8,4,1,2
371,1,31.73,41.4445,1,2,1.1716,1,101,TRUE,8,4,0,2
372,2,46.13,37.6778,1,2,0.8401,1,101,TRUE,8,4,1,2
373,2,56.49,47.0543,1,2,0.6615,1,101,TRUE,8,4,1,2
374,1,43.98,56.2051,1,2,0.4738,1,101,TRUE,8,4,0,2
375,1,47.94,64.0403,1,2,0.5225,1,101,TRUE,8,4,0,2
376,2,57.99,41.9436,1,1,0.8575,1,101,TRUE,8,4,0,2
377,1,29.3,40.4549,1,2,0.3546,1,101,TRUE,8,4,0,2
378,2,46.76,21.9665,1,1,0.3762,1,101,TRUE,8,4,0,2
379,1,41.42,57.5114,1,1,0.5492,1,101,TRUE,8,4,1,2
380,1,58.59,71.0087,1,1,0.6782,1,101,TRUE,8,4,1,2
381,2,39.3,19.6688,1,2,0.5697,1,101,TRUE,8,4,1,2
382,2,50.76,31.087,1,2,1.6663,1,101,TRUE,8,4,1,2
383,2,57.78,41.2696,1,2,0.8617,1,101,TRUE,8,4,1,2
384,2,45.89,38.5345,1,2,0.7057,1,101,TRUE,8,4,1,2
385,2,46.32,31.0904,1,2,0.6287,1,101,TRUE,8,4,1,2
386,1,61.68,73.7786,1,1,1.7463,1,101,TRUE,8,4,1,2
387,1,42.09,52.7351,1,2,0.8822,1,101,TRUE,8,4,0,2
388,1,46.82,57.034,1,1,0.6211,1,101,TRUE,8,4,1,2
389,2,60.27,50.9635,1,2,0.7214,1,101,TRUE,8,4,1,2
390,2,26.4,16.1763,1,2,0.7316,1,101,TRUE,8,4,1,2
391,2,50.98,43.7133,1,2,1.1408,1,101,TRUE,8,4,1,2
392,1,54.79,66.442,1,2,0.6143,1,101,TRUE,8,4,0,2
393,1,11.94,25.6277,1,2,0.6258,1,101,TRUE,8,4,0,2
394,2,46.76,31.604,1,2,0.6206,1,101,TRUE,8,4,1,2
395,1,39.72,53.5219,1,2,0.6187,1,101,TRUE,8,4,0,2
396,2,57.6,45.7987,1,1,0.6383,1,101,TRUE,8,4,0,2
397,1,60.23,74.2954,1,2,0.7922,1,101,TRUE,8,4,0,2
398,1,33.36,54.4272,1,2,0.4923,1,101,TRUE,8,4,0,2
399,1,56.26,73.2887,1,1,1.2121,1,101,TRUE,8,4,1,2
400,1,39.51,58.6293,1,2,0.9782,1,101,TRUE,8,4,0,2
401,2,59.61,48.6692,1,2,0.7167,1,101,TRUE,9,5,1,2
402,2,62.71,54.4399,1,2,0.5187,1,101,TRUE,9,5,1,2
403,1,48.82,70.3785,1,2,1.7451,1,101,TRUE,9,5,0,2
404,2,59.01,42.2927,1,1,0.4623,1,101,TRUE,9,5,0,2
405,2,43.01,28.3447,1,2,0.4318,1,101,TRUE,9,5,1,2
406,2,46.26,35.729,1,2,0.5977,1,101,TRUE,9,5,1,2
407,2,62.71,54.263,1,1,0.3565,1,101,TRUE,9,5,0,2
408,1,24.05,48.3219,1,1,0.2663,1,101,TRUE,9,5,1,2
409,1,27.34,36.279,1,2,0.271,1,101,TRUE,9,5,0,2
410,1,50.29,57.7753,1,1,1.0319,1,101,TRUE,9,5,1,2
411,2,52.51,42.1061,1,2,0.4691,1,101,TRUE,9,5,1,2
412,1,39.39,47.2078,1,1,0.5136,1,101,TRUE,9,5,1,2
413,1,66.6,75.6798,1,2,0.1638,1,101,TRUE,9,5,0,2
414,1,34.9,57.7166,1,2,0.2497,1,101,TRUE,9,5,0,2
415,2,69.68,56.3202,1,1,0.316,1,101,TRUE,9,5,0,2
416,2,41.22,24.1867,1,1,0.1478,1,101,TRUE,9,5,0,2
417,2,65.43,50.1249,1,1,2.1302,1,101,TRUE,9,5,0,2
418,2,69.31,61.6089,1,2,0.3838,1,101,TRUE,9,5,1,2
419,2,55.45,41.3896,1,2,0.4317,1,101,TRUE,9,5,1,2
420,2,59.24,41.1206,1,2,0.5255,1,101,TRUE,9,5,1,2
421,1,39.43,51.7264,1,2,0.7591,1,101,TRUE,9,5,0,2
422,1,40.91,49.4359,1,2,0.8044,1,101,TRUE,9,5,0,2
423,2,76.63,60.8833,1,2,0.8316,1,101,TRUE,9,5,1,2
424,2,72.32,57.309,1,2,0.4852,1,101,TRUE,9,5,1,2
425,1,43.15,51.9839,1,2,0.6971,1,101,TRUE,9,5,0,2
426,2,58.52,40.0246,1,2,0.4729,1,101,TRUE,9,5,1,2
427,2,43.78,30.0827,1,2,0.7731,1,101,TRUE,9,5,1,2
428,1,52.95,71.304,1,2,1.6696,1,101,TRUE,9,5,0,2
429,1,58.29,75.0585,1,2,0.6301,1,101,TRUE,9,5,0,2
430,2,58.27,45.5099,1,1,2.0749,1,101,TRUE,9,5,0,2
431,1,50.12,53.8783,1,1,0.4885,1,101,TRUE,9,5,1,2
432,1,45.67,59.3011,1,1,0.8361,1,101,TRUE,9,5,1,2
433,1,63.77,79.21,1,2,1.0417,1,101,TRUE,9,5,0,2
434,2,54.94,36.5409,1,2,0.8675,1,101,TRUE,9,5,1,2
435,2,56.71,37.6773,1,2,1.0876,1,101,TRUE,9,5,1,2
436,1,49.8,69.2946,1,1,0.8668,1,101,TRUE,9,5,1,2
437,1,52.66,68.0357,1,1,1.719,1,101,TRUE,9,5,1,2
438,2,54.47,40.4088,1,2,0.5764,1,101,TRUE,9,5,1,2
439,2,59.09,42.2948,1,2,0.8161,1,101,TRUE,9,5,1,2
440,1,27.03,36.0603,1,1,0.8702,1,101,TRUE,9,5,1,2
441,2,61.69,42.0533,1,2,1.2184,1,101,TRUE,9,5,1,2
442,2,57.94,46.5245,1,2,0.6242,1,101,TRUE,9,5,1,2
443,2,53.77,40.0301,1,2,0.7584,1,101,TRUE,9,5,1,2
444,2,53.33,35.6879,1,2,0.4627,1,101,TRUE,9,5,1,2
445,1,36.38,46.2563,1,1,1.219,1,101,TRUE,9,5,1,2
446,1,36.28,51.267,1,1,0.7208,1,101,TRUE,9,5,1,2
447,1,46.5,57.0052,1,1,1.451,1,101,TRUE,9,5,1,2
448,2,66.89,46.2225,1,2,0.9274,1,101,TRUE,9,5,1,2
449,1,57.72,65.7155,1,1,1.3369,1,101,TRUE,9,5,1,2
450,2,78.58,59.3354,1,1,1.0098,1,101,TRUE,9,5,0,2
451,2,71.66,62.6142,1,2,1.2928,1,101,TRUE,10,5,1,2
452,1,58.41,73.7193,1,1,0.8234,1,101,TRUE,10,5,1,2
453,1,48.39,62.0011,1,1,0.8213,1,101,TRUE,10,5,1,2
454,1,29.58,43.4423,1,2,1.9635,1,101,TRUE,10,5,0,2
455,2,68.89,55.9996,1,1,0.5597,1,101,TRUE,10,5,0,2
456,2,27.66,20.8166,1,1,0.4292,1,101,TRUE,10,5,0,2
457,2,51.73,35.3388,1,1,0.4002,1,101,TRUE,10,5,0,2
458,2,48.48,33.8375,1,1,0.6766,1,101,TRUE,10,5,0,2
459,2,65.78,55.3935,1,1,0.5572,1,101,TRUE,10,5,0,2
460,1,35.27,48.7687,1,1,0.6268,1,101,TRUE,10,5,1,2
461,2,56.92,42.2474,1,1,0.7923,1,101,TRUE,10,5,0,2
462,1,45.63,51.4351,1,2,0.2522,1,101,TRUE,10,5,0,2
463,2,61.35,40.0877,1,2,0.8705,1,101,TRUE,10,5,1,2
464,2,61.6,39.9082,1,2,1.1307,1,101,TRUE,10,5,1,2
465,1,32.99,47.0211,1,1,0.6681,1,101,TRUE,10,5,1,2
466,1,36.15,51.3845,1,1,0.6964,1,101,TRUE,10,5,1,2
467,1,18.31,38.61,1,1,0.7232,1,101,TRUE,10,5,1,2
468,1,43.01,54.8697,1,1,0.7252,1,101,TRUE,10,5,1,2
469,2,58.96,47.1875,1,2,1.4869,1,101,TRUE,10,5,1,2
470,2,48.24,32.3688,1,2,0.7139,1,101,TRUE,10,5,1,2
471,2,73.66,62.3043,1,1,0.996,1,101,TRUE,10,5,0,2
472,2,65.38,52.676,1,2,0.3919,1,101,TRUE,10,5,1,2
473,1,44.88,63.6372,1,1,1.0231,1,101,TRUE,10,5,1,2
474,1,50.06,67.0606,1,2,1.3329,1,101,TRUE,10,5,0,2
475,1,40.63,50.2713,1,1,0.4352,1,101,TRUE,10,5,1,2
476,1,39.47,59.6146,1,1,0.481,1,101,TRUE,10,5,1,2
477,1,32.27,49.7358,1,1,0.8046,1,101,TRUE,10,5,1,2
478,2,58.13,46.0074,1,1,0.4917,1,101,TRUE,10,5,0,2
479,1,27.15,39.9379,1,2,0.7635,1,101,TRUE,10,5,0,2
480,2,69.09,57.9182,1,2,0.6648,1,101,TRUE,10,5,1,2
481,1,41.04,46.6625,1,1,0.7733,1,101,TRUE,10,5,1,2
482,2,53.34,39.8425,1,2,1.1896,1,101,TRUE,10,5,1,2
483,2,54.19,39.1965,1,2,0.7087,1,101,TRUE,10,5,1,2
484,2,54.04,37.5689,1,2,0.575,1,101,TRUE,10,5,1,2
485,2,38.58,27.2605,1,2,1.1668,1,101,TRUE,10,5,1,2
486,1,47.83,68.8457,1,2,0.5024,1,101,TRUE,10,5,0,2
487,1,41.88,48.9633,1,1,0.5508,1,101,TRUE,10,5,1,2
488,2,70.9,50.4199,1,2,1.2958,1,101,TRUE,10,5,1,2
489,1,29.75,39.0284,1,2,0.778,1,101,TRUE,10,5,0,2
490,1,53.76,63.884,1,1,0.4468,1,101,TRUE,10,5,1,2
491,1,55.76,69.1813,1,1,0.4517,1,101,TRUE,10,5,1,2
492,1,42.24,63.3158,1,2,0.4649,1,101,TRUE,10,5,0,2
493,2,49.72,39.2856,1,2,0.4266,1,101,TRUE,10,5,1,2
494,1,49.62,62.2038,1,2,0.4082,1,101,TRUE,10,5,0,2
495,1,32.29,49.3277,1,1,0.6198,1,101,TRUE,10,5,1,2
496,2,69.71,43.8838,1,2,0.8981,1,101,TRUE,10,5,1,2
497,1,45.22,57.3917,1,1,1.5729,1,101,TRUE,10,5,1,2
498,1,26.24,35.3967,1,1,0.6926,1,101,TRUE,10,5,1,2
499,2,71.73,53.3838,1,1,0.7111,1,101,TRUE,10,5,0,2
500,2,63.76,48.7004,1,1,0.6706,1,101,TRUE,10,5,0,2
501,3,138.17,50.0688,2,3,2.9829,1,101,FALSE,11,6,1,3
502,4,160.83,56.7297,2,4,0.7086,1,101,TRUE,11,6,1,3
503,4,158.95,15.5629,2,4,0.863,1,101,TRUE,11,6,1,3
504,4,163.8,42.3363,2,4,0.475,1,101,TRUE,11,6,1,3
505,4,156.26,61.6117,2,4,0.4385,1,101,TRUE,11,6,1,3
506,4,161.48,49.4255,2,4,0.6045,1,101,TRUE,11,6,1,3
507,3,139.17,59.1055,2,3,0.7634,1,101,TRUE,11,6,1,3
508,2,42.56,33.1629,1,1,3.0757,1,101,FALSE,11,6,0,3
509,4,157.88,36.0781,2,4,1.0345,1,101,FALSE,11,6,1,3
510,3,145.14,28.0422,2,4,0.9523,1,101,TRUE,11,6,0,3
511,3,137.71,81.3683,2,3,1.0376,1,101,TRUE,11,6,1,3
512,4,159.86,43.5796,2,4,0.7952,1,101,TRUE,11,6,1,3
513,3,143.68,24.2725,2,3,0.978,1,101,TRUE,11,6,1,3
514,1,45.98,50.4426,1,2,1.4651,1,101,FALSE,11,6,0,3
515,4,155.84,42.8692,2,4,0.7937,1,101,FALSE,11,6,1,3
516,3,142.28,40.8947,2,3,1.0329,1,101,TRUE,11,6,1,3
517,2,63.93,56.556,1,2,0.8301,1,101,FALSE,11,6,1,3
518,3,138.67,25.7189,2,3,0.7235,1,101,FALSE,11,6,1,3
519,4,157.4,33.1038,2,4,0.5337,1,101,TRUE,11,6,1,3
520,2,46.76,31.604,1,1,0.8492,1,101,FALSE,11,6,0,3
521,4,155.14,46.2508,2,4,0.7774,1,101,FALSE,11,6,1,3
522,3,137.04,39.5931,2,3,0.9049,1,101,TRUE,11,6,1,3
523,1,51.83,68.122,1,2,0.9157,1,101,FALSE,11,6,0,3
524,4,153.37,44.189,2,4,1.0349,1,101,FALSE,11,6,1,3
525,2,59.54,43.0791,1,2,1.2561,1,101,FALSE,11,6,1,3
526,3,143.26,44.7572,2,3,1.4527,1,101,FALSE,11,6,1,3
527,3,138.62,49.2448,2,3,0.5931,1,101,TRUE,11,6,1,3
528,1,31.73,41.4445,1,1,0.9759,1,101,FALSE,11,6,1,3
529,2,49.2,28.7709,1,1,0.7031,1,101,TRUE,11,6,0,3
530,4,157.1,74.6727,2,4,0.5833,1,101,FALSE,11,6,1,3
531,2,76.76,54.1692,1,2,0.895,1,101,FALSE,11,6,1,3
532,4,161.59,40.8569,2,4,0.9536,1,101,FALSE,11,6,1,3
533,2,69.71,43.8838,1,2,1.1945,1,101,FALSE,11,6,1,3
534,3,142.55,47.636,2,3,0.8008,1,101,FALSE,11,6,1,3
535,3,140.49,49.0823,2,3,0.7598,1,101,TRUE,11,6,1,3
536,4,161.82,46.359,2,4,0.752,1,101,TRUE,11,6,1,3
537,2,54.19,39.1965,1,2,1.1448,1,101,FALSE,11,6,1,3
538,1,58.51,72.6155,1,2,1.2814,1,101,TRUE,11,6,0,3
539,3,142.89,72.454,2,3,1.7776,1,101,FALSE,11,6,1,3
540,3,135.13,20.9297,2,3,0.7283,1,101,TRUE,11,6,1,3
541,3,144.41,42.1666,2,3,1.9779,1,101,TRUE,11,6,1,3
542,2,58.2,46.0994,1,2,1.1126,1,101,FALSE,11,6,1,3
543,2,68.33,52.9045,1,1,1.4902,1,101,TRUE,11,6,0,3
544,3,139.88,34.3947,2,3,0.9532,1,101,FALSE,11,6,1,3
545,2,37.15,24.716,1,1,0.858,1,101,FALSE,11,6,0,3
546,1,42.93,62.7258,1,1,0.7392,1,101,TRUE,11,6,1,3
547,1,39.78,56.6358,1,1,0.8849,1,101,TRUE,11,6,1,3
548,3,136.62,72.7398,2,3,1.2561,1,101,FALSE,11,6,1,3
549,4,160.81,66.1455,2,4,0.9966,1,101,TRUE,11,6,1,3
550,2,67.37,48.246,1,2,1.2114,1,101,FALSE,11,6,1,3
551,4,158.58,50.768,2,3,0.8186,1,101,FALSE,12,6,0,3
552,2,42.65,25.7749,1,1,0.8538,1,101,FALSE,12,6,0,3
553,1,44.85,58.2915,1,1,3.4238,1,101,TRUE,12,6,1,3
554,3,142.7,49.6389,2,3,2.3958,1,101,FALSE,12,6,1,3
555,4,161.65,44.0689,2,4,2.7697,1,101,TRUE,12,6,1,3
556,4,153.64,52.6627,2,3,0.8402,1,101,TRUE,12,6,0,3
557,1,34.77,48.009,1,1,1.65,1,101,FALSE,12,6,1,3
558,2,79.88,58.9603,1,2,0.8383,1,101,TRUE,12,6,1,3
559,4,159.77,41.7433,2,4,1.3237,1,101,FALSE,12,6,1,3
560,2,64.7,55.5722,1,2,1.1654,1,101,FALSE,12,6,1,3
561,3,140.74,36.5678,2,3,0.7974,1,101,FALSE,12,6,1,3
562,3,142.11,28.6145,2,3,1.46,1,101,TRUE,12,6,1,3
563,4,155.53,33.4846,2,3,0.6555,1,101,TRUE,12,6,0,3
564,2,52.73,43.9275,1,2,1.0648,1,101,FALSE,12,6,1,3
565,2,57.94,46.5245,1,2,0.6851,1,101,TRUE,12,6,1,3
566,1,47.94,64.0403,1,2,0.7849,1,101,TRUE,12,6,0,3
567,4,157.8,56.2454,2,4,0.8295,1,101,FALSE,12,6,1,3
568,3,140.05,48.9191,2,3,1.0828,1,101,TRUE,12,6,1,3
569,3,141.15,69.8438,2,3,0.686,1,101,TRUE,12,6,1,3
570,2,50.35,40.0382,1,3,0.6496,1,101,FALSE,12,6,0,3
571,3,140.88,43.3533,2,3,0.7478,1,101,FALSE,12,6,1,3
572,3,141.21,32.6208,2,4,0.4446,1,101,TRUE,12,6,0,3
573,1,57.72,65.7155,1,2,1.2067,1,101,FALSE,12,6,0,3
574,1,27.34,36.279,1,2,0.7299,1,101,TRUE,12,6,0,3
575,4,162.13,47.1242,2,4,1.0484,1,101,FALSE,12,6,1,3
576,2,66.25,57.6129,1,2,1.1091,1,101,FALSE,12,6,1,3
577,3,144.91,49.0327,2,3,1.0789,1,101,FALSE,12,6,1,3
578,2,54.9,47.9243,1,1,2.0183,1,101,FALSE,12,6,0,3
579,3,143.31,35.8419,2,3,1.3085,1,101,FALSE,12,6,1,3
580,1,31.98,44.462,1,2,1.9105,1,101,FALSE,12,6,0,3
581,4,158.05,41.6317,2,3,1.9008,1,101,FALSE,12,6,0,3
582,1,38.57,42.4299,1,1,1.004,1,101,FALSE,12,6,1,3
583,1,43.06,53.5981,1,1,2.3949,1,101,TRUE,12,6,1,3
584,4,154.42,67.4146,2,4,1.7362,1,101,FALSE,12,6,1,3
585,3,142.38,38.7402,2,3,0.6086,1,101,TRUE,12,6,1,3
586,2,58.87,45.053,1,2,0.9671,1,101,FALSE,12,6,1,3
587,1,36.15,51.3845,1,1,0.6312,1,101,TRUE,12,6,1,3
588,1,28.89,46.0565,1,1,0.7889,1,101,TRUE,12,6,1,3
589,1,34.9,57.7166,1,1,0.8444,1,101,TRUE,12,6,1,3
590,4,158.37,65.6065,2,4,1.8013,1,101,FALSE,12,6,1,3
591,2,62.71,54.263,1,2,1.5993,1,101,FALSE,12,6,1,3
592,4,159.53,41.0973,2,4,2.2454,1,101,FALSE,12,6,1,3
593,1,48.39,62.0011,1,2,1.2893,1,101,FALSE,12,6,0,3
594,2,61.6,39.9082,1,2,0.6248,1,101,TRUE,12,6,1,3
595,3,132.89,47.5392,2,3,0.6944,1,101,FALSE,12,6,1,3
596,4,161.03,27.7136,2,4,2.8574,1,101,TRUE,12,6,1,3
597,4,158.02,39.2901,2,4,0.5806,1,101,TRUE,12,6,1,3
598,2,41.18,32.85,1,1,1.1482,1,101,FALSE,12,6,0,3
599,2,51.11,34.233,1,2,1.2178,1,101,TRUE,12,6,1,3
600,3,141.55,25.3184,2,3,0.9278,1,101,FALSE,12,6,1,3
601,4,164.05,47.3739,2,3,0.9515,1,101,TRUE,13,7,0,3
602,4,162.7,23.7418,2,3,2.2134,1,101,TRUE,13,7,0,3
603,2,55.64,48.7739,1,1,0.8954,1,101,FALSE,13,7,0,3
604,4,154.64,58.4709,2,4,0.7755,1,101,FALSE,13,7,1,3
605,3,141.31,45.6657,2,4,0.9107,1,101,TRUE,13,7,0,3
606,3,134.97,49.9403,2,3,0.6222,1,101,TRUE,13,7,1,3
607,4,159.34,26.0073,2,4,1.0045,1,101,TRUE,13,7,1,3
608,4,164.95,43.6023,2,3,0.6672,1,101,TRUE,13,7,0,3
609,1,36.06,47.5755,1,2,0.6684,1,101,FALSE,13,7,0,3
610,1,38.17,52,1,2,0.6618,1,101,TRUE,13,7,0,3
611,4,161.3,40.7661,2,2,0.5353,1,101,FALSE,13,7,0,3
612,2,59.46,45.2104,1,1,0.822,1,101,FALSE,13,7,0,3
613,2,52.43,44.0622,1,2,2.6164,1,101,TRUE,13,7,1,3
614,4,163.07,51.3599,2,4,2.1415,1,101,FALSE,13,7,1,3
615,1,52.83,59.6936,1,2,1.7736,1,101,FALSE,13,7,0,3
616,4,161.77,27.2415,2,2,1.0898,1,101,FALSE,13,7,0,3
617,1,41.73,63.1552,1,2,2.1295,1,101,FALSE,13,7,0,3
618,3,140.5,52.2237,2,3,1.071,1,101,FALSE,13,7,1,3
619,4,158.88,51.1773,2,4,1.6927,1,101,TRUE,13,7,1,3
620,4,163.15,23.8362,2,4,1.3571,1,101,TRUE,13,7,1,3
621,2,52.34,37.5544,1,2,1.1335,1,101,FALSE,13,7,1,3
622,1,46.5,57.0052,1,1,0.8389,1,101,TRUE,13,7,1,3
623,1,43.59,63.9925,1,1,2.0522,1,101,TRUE,13,7,1,3
624,1,65.29,81.6581,1,1,1.3602,1,101,TRUE,13,7,1,3
625,3,137.22,49.7806,2,4,1.976,1,101,FALSE,13,7,0,3
626,2,53.76,41.5325,1,4,1.8036,1,101,FALSE,13,7,0,3
627,3,138.88,35.4286,2,3,1.7349,1,101,FALSE,13,7,1,3
628,3,140.26,38.9945,2,3,4.4396,1,101,TRUE,13,7,1,3
629,4,159.05,66.8956,2,4,0.9781,1,101,TRUE,13,7,1,3
630,1,40.93,51.1754,1,1,1.5456,1,101,FALSE,13,7,1,3
631,4,161.54,38.9675,2,4,0.7859,1,101,FALSE,13,7,1,3
632,1,56.43,67.3414,1,2,0.5773,1,101,FALSE,13,7,0,3
633,1,54.91,68.0724,1,2,1.9262,1,101,TRUE,13,7,0,3
634,2,63.76,48.7004,1,1,0.2839,1,101,TRUE,13,7,0,3
635,3,140.01,47.4295,2,4,0.8129,1,101,FALSE,13,7,0,3
636,4,159.99,69.5459,2,4,0.504,1,101,TRUE,13,7,1,3
637,2,48.27,43.5102,1,2,1.0671,1,101,FALSE,13,7,1,3
638,2,49.78,38.3895,1,2,1.327,1,101,TRUE,13,7,1,3
639,4,162.71,56.7381,2,4,0.7281,1,101,FALSE,13,7,1,3
640,2,46.26,35.729,1,2,0.9697,1,101,FALSE,13,7,1,3
641,2,48.94,33.9898,1,1,1.1059,1,101,TRUE,13,7,0,3
642,1,31.83,47.5603,1,1,1.1608,1,101,TRUE,13,7,1,3
643,2,65.84,52.3953,1,2,1.3847,1,101,TRUE,13,7,1,3
644,2,66.96,60.594,1,1,2.3517,1,101,TRUE,13,7,0,3
645,2,38.19,27.2222,1,2,3.9164,1,101,TRUE,13,7,1,3
646,1,48.44,61.2359,1,1,4.0603,1,101,TRUE,13,7,1,3
647,4,155.97,62.0016,2,4,1.5979,1,101,FALSE,13,7,1,3
648,3,138.4,48.3901,2,3,0.7001,1,101,TRUE,13,7,1,3
649,3,146.32,82.8261,2,3,0.9031,1,101,TRUE,13,7,1,3
650,1,58.29,75.0585,1,2,2.3618,1,101,FALSE,13,7,0,3
651,3,135.07,57.4548,2,3,1.2391,1,101,FALSE,14,7,1,3
652,1,16.25,35.6217,1,1,0.7724,1,101,FALSE,14,7,1,3
653,4,162.04,23.9256,2,4,0.4684,1,101,FALSE,14,7,1,3
654,4,158.2,61.671,2,4,0.7689,1,101,TRUE,14,7,1,3
655,4,153.59,38.1059,2,3,0.577,1,101,TRUE,14,7,0,3
656,2,62.38,51.2034,1,3,0.07,1,101,FALSE,14,7,0,3
657,1,33.36,54.4272,1,2,1.3039,1,101,TRUE,14,7,0,3
658,1,21.6,40.3945,1,1,0.5747,1,101,TRUE,14,7,1,3
659,1,32.95,49.0717,1,1,0.9101,1,101,TRUE,14,7,1,3
660,2,74.43,63.0726,1,1,0.4963,1,101,TRUE,14,7,0,3
661,4,163.11,58.2933,2,4,1.1286,1,101,FALSE,14,7,1,3
662,2,62.42,47.1002,1,2,1.2757,1,101,FALSE,14,7,1,3
663,3,138.08,67.0221,2,3,1.181,1,101,FALSE,14,7,1,3
664,4,159.68,31.5152,2,3,1.2119,1,101,TRUE,14,7,0,3
665,2,51.34,40.2516,1,1,3.4629,1,101,FALSE,14,7,0,3
666,4,163.53,86.0112,2,4,2.0864,1,101,FALSE,14,7,1,3
667,1,45.63,60.533,1,2,1.2968,1,101,FALSE,14,7,0,3
668,3,139.38,38.4461,2,3,0.7045,1,101,FALSE,14,7,1,3
669,3,140.39,50.8274,2,3,1.5391,1,101,TRUE,14,7,1,3
670,2,56.57,46.068,1,2,1.1723,1,101,FALSE,14,7,1,3
671,2,65.25,46.9112,1,2,1.1883,1,101,TRUE,14,7,1,3
672,2,38.58,27.2605,1,2,1.0034,1,101,TRUE,14,7,1,3
673,1,52.95,71.304,1,2,0.7061,1,101,TRUE,14,7,0,3
674,2,52.51,36.8576,1,2,0.7374,1,101,TRUE,14,7,1,3
675,4,161.69,61.6386,2,4,1.2588,1,101,FALSE,14,7,1,3
676,2,57.64,39.3685,1,3,0.5745,1,101,FALSE,14,7,0,3
677,1,33.71,52.5675,1,2,0.8755,1,101,TRUE,14,7,0,3
678,2,60.21,41.7163,1,2,0.6599,1,101,TRUE,14,7,1,3
679,1,52.27,67.9568,1,2,0.4963,1,101,TRUE,14,7,0,3
680,3,137.9,53.1012,2,3,0.7045,1,101,FALSE,14,7,1,3
681,1,43.98,56.2051,1,2,1.7392,1,101,FALSE,14,7,0,3
682,1,41.12,55.2462,1,2,0.8885,1,101,TRUE,14,7,0,3
683,3,145.59,44.6792,2,2,1.0486,1,101,FALSE,14,7,0,3
684,4,158.06,66.6275,2,4,0.9061,1,101,TRUE,14,7,1,3
685,1,49.8,69.2946,1,1,0.8048,1,101,FALSE,14,7,1,3
686,3,137.73,43.3916,2,3,0.5958,1,101,FALSE,14,7,1,3
687,1,41.63,52.1208,1,2,3.2985,1,101,FALSE,14,7,0,3
688,3,138.6,37.2869,2,3,0.7849,1,101,FALSE,14,7,1,3
689,3,144.85,82.3586,2,4,0.6884,1,101,TRUE,14,7,0,3
690,1,31.57,56.2565,1,1,1.3284,1,101,FALSE,14,7,1,3
691,2,53.62,43.4221,1,1,0.8973,1,101,TRUE,14,7,0,3
692,4,162.51,19.4828,2,4,1.3134,1,101,FALSE,14,7,1,3
693,4,155.37,36.2634,2,4,2.9469,1,101,TRUE,14,7,1,3
694,4,162.47,42.2346,2,4,0.5461,1,101,TRUE,14,7,1,3
695,4,162.67,40.3944,2,4,0.7574,1,101,TRUE,14,7,1,3
696,4,161.82,50.9232,2,3,0.6122,1,101,TRUE,14,7,0,3
697,1,62.08,77.808,1,2,1.2877,1,101,FALSE,14,7,0,3
698,2,45.73,34.5846,1,2,1.3511,1,101,TRUE,14,7,1,3
699,3,143.44,27.9259,2,3,1.4874,1,101,FALSE,14,7,1,3
700,2,53.77,40.0301,1,3,1.2105,1,101,FALSE,14,7,0,3
701,3,140.82,28.9487,2,3,1.2575,1,101,FALSE,15,8,1,3
702,1,34.39,50.8746,1,1,0.9499,1,101,FALSE,15,8,1,3
703,4,159.58,57.8275,2,4,1.0144,1,101,FALSE,15,8,1,3
704,4,155.15,77.4658,2,4,1.4606,1,101,TRUE,15,8,1,3
705,4,162.69,68.05,2,4,1.3764,1,101,TRUE,15,8,1,3
706,1,49.26,73.6872,1,2,1.2632,1,101,FALSE,15,8,0,3
707,2,46.76,21.9665,1,1,1.1041,1,101,TRUE,15,8,0,3
708,2,43.78,30.0827,1,1,2.9114,1,101,TRUE,15,8,0,3
709,4,161.25,37.3274,2,4,1.1808,1,101,FALSE,15,8,1,3
710,2,69.09,57.9182,1,2,2.0202,1,101,FALSE,15,8,1,3
711,2,62.84,54.9045,1,2,1.4331,1,101,TRUE,15,8,1,3
712,1,30.38,46.4895,1,1,1.6302,1,101,TRUE,15,8,1,3
713,1,38.48,52.06,1,4,7.7473,1,101,TRUE,15,8,0,3
714,2,78.58,59.3354,1,1,0.5822,1,101,TRUE,15,8,0,3
715,2,61.35,40.0877,1,1,0.5628,1,101,TRUE,15,8,0,3
716,2,57.6,45.7987,1,2,0.4405,1,101,TRUE,15,8,1,3
717,4,157.21,47.9077,2,4,1.5822,1,101,FALSE,15,8,1,3
718,3,141.85,49.101,2,4,0.943,1,101,TRUE,15,8,0,3
719,1,51.3,67.1102,1,2,0.8907,1,101,FALSE,15,8,0,3
720,3,141.39,51.8479,2,3,1.2907,1,101,FALSE,15,8,1,3
721,1,50.12,53.8783,1,1,3.3817,1,101,FALSE,15,8,1,3
722,2,49.97,37.8711,1,1,0.5715,1,101,TRUE,15,8,0,3
723,2,43.5,28.2389,1,2,0.6321,1,101,TRUE,15,8,1,3
724,1,54.79,66.442,1,2,0.7499,1,101,TRUE,15,8,0,3
725,3,141.46,59.5008,2,3,1.0918,1,101,FALSE,15,8,1,3
726,3,140.24,45.2214,2,3,0.6543,1,101,TRUE,15,8,1,3
727,3,138.4,51.0121,2,3,1.0431,1,101,TRUE,15,8,1,3
728,3,139.82,39.3777,2,3,0.6238,1,101,TRUE,15,8,1,3
729,2,71.28,48.5884,1,2,1.1735,1,101,FALSE,15,8,1,3
730,2,37.32,26.2456,1,2,0.9814,1,101,TRUE,15,8,1,3
731,1,60.23,74.2954,1,1,1.4848,1,101,TRUE,15,8,1,3
732,3,141.61,24.8926,2,3,2.1358,1,101,FALSE,15,8,1,3
733,4,156.5,80.1256,2,4,2.32,1,101,TRUE,15,8,1,3
734,4,158.83,54.0806,2,4,0.7771,1,101,TRUE,15,8,1,3
735,1,27.15,39.9379,1,1,0.9786,1,101,FALSE,15,8,1,3
736,2,44.69,32.6865,1,2,0.608,1,101,TRUE,15,8,1,3
737,3,142.73,63.4497,2,3,1.3184,1,101,FALSE,15,8,1,3
738,3,137.02,67.1474,2,3,0.5601,1,101,TRUE,15,8,1,3
739,1,66.6,75.6798,1,3,0.9123,1,101,FALSE,15,8,0,3
740,1,52.66,68.0357,1,3,0.5596,1,101,TRUE,15,8,0,3
741,2,56.92,42.2474,1,2,0.6954,1,101,TRUE,15,8,1,3
742,1,40.63,50.2713,1,1,0.5521,1,101,TRUE,15,8,1,3
743,3,136.71,23.1245,2,4,0.6491,1,101,FALSE,15,8,0,3
744,4,157.43,51.8649,2,4,0.363,1,101,TRUE,15,8,1,3
745,2,56.61,44.4761,1,2,1.0516,1,101,FALSE,15,8,1,3
746,1,39.47,59.6146,1,1,1.5923,1,101,TRUE,15,8,1,3
747,2,44.32,33.6858,1,4,9.9346,1,101,TRUE,15,8,0,3
748,1,32.27,49.7358,1,1,0.4563,1,101,TRUE,15,8,1,3
749,2,46.13,37.6778,1,1,0.7493,1,101,TRUE,15,8,0,3
750,4,165.75,83.9261,2,4,1.8194,1,101,FALSE,15,8,1,3
751,4,157.45,31.695,2,3,2.9536,1,101,TRUE,16,8,0,3
752,2,56.69,42.4037,1,2,2.3799,1,101,FALSE,16,8,1,3
753,4,157.74,55.8534,2,4,1.7942,1,101,FALSE,16,8,1,3
754,2,52.51,42.1061,1,2,1.1043,1,101,FALSE,16,8,1,3
755,4,158.62,37.2538,2,4,0.803,1,101,FALSE,16,8,1,3
756,1,43.2,55.7524,1,4,6.3378,1,101,FALSE,16,8,0,3
757,2,45.14,31.1446,1,1,0.3903,1,101,TRUE,16,8,0,3
758,1,40.42,62.1252,1,2,0.8026,1,101,TRUE,16,8,0,3
759,2,69.68,56.3202,1,2,0.8386,1,101,TRUE,16,8,1,3
760,4,162.88,50.1335,2,4,1.332,1,101,FALSE,16,8,1,3
761,2,71.79,56.1119,1,2,2.9971,1,101,FALSE,16,8,1,3
762,1,46.08,53.2907,1,1,2.2662,1,101,TRUE,16,8,1,3
763,1,50,59.1192,1,2,1.9575,1,101,TRUE,16,8,0,3
764,3,136.19,48.5403,2,3,1.9618,1,101,FALSE,16,8,1,3
765,3,141.16,57.0426,2,4,0.5369,1,101,TRUE,16,8,0,3
766,2,58.27,45.5099,1,2,1.8478,1,101,FALSE,16,8,1,3
767,3,134.75,63.5737,2,3,1.1398,1,101,FALSE,16,8,1,3
768,4,160.46,42.8551,2,4,0.6051,1,101,TRUE,16,8,1,3
769,3,140.73,18.1589,2,3,2.0998,1,101,TRUE,16,8,1,3
770,3,144.98,30.2468,2,3,0.7259,1,101,TRUE,16,8,1,3
771,1,36.1,47.6851,1,2,1.0155,1,101,FALSE,16,8,0,3
772,1,50.29,57.7753,1,2,0.6905,1,101,TRUE,16,8,0,3
773,3,137.48,67.8293,2,4,0.5146,1,101,FALSE,16,8,0,3
774,1,42.24,63.3158,1,1,0.7221,1,101,FALSE,16,8,1,3
775,4,160.9,46.3708,2,4,0.6123,1,101,FALSE,16,8,1,3
776,4,161.67,35.5513,2,4,0.6506,1,101,TRUE,16,8,1,3
777,1,57.61,69.7033,1,2,0.7115,1,101,FALSE,16,8,0,3
778,2,45.08,37.8588,1,1,0.5269,1,101,TRUE,16,8,0,3
779,3,141.87,51.6034,2,4,0.6298,1,101,FALSE,16,8,0,3
780,3,138.77,70.8192,2,3,0.8885,1,101,TRUE,16,8,1,3
781,2,42.21,35.1242,1,2,0.8998,1,101,FALSE,16,8,1,3
782,3,143.56,56.4515,2,3,1.6705,1,101,FALSE,16,8,1,3
783,1,57.88,65.1439,1,2,0.7462,1,101,FALSE,16,8,0,3
784,1,33.95,47.0529,1,2,1.888,1,101,TRUE,16,8,0,3
785,1,66.98,72.4467,1,1,0.664,1,101,TRUE,16,8,1,3
786,3,138.1,53.3818,2,3,0.5963,1,101,FALSE,16,8,1,3
787,1,37.53,43.4336,1,2,0.6592,1,101,FALSE,16,8,0,3
788,3,143.58,79.8951,2,4,1.0686,1,101,FALSE,16,8,0,3
789,1,31.46,41.625,1,1,0.5978,1,101,FALSE,16,8,1,3
790,2,50.76,31.087,1,2,0.6607,1,101,TRUE,16,8,1,3
791,3,138.62,58.4714,2,3,0.7369,1,101,FALSE,16,8,1,3
792,2,70.89,56.7536,1,2,1.1464,1,101,FALSE,16,8,1,3
793,2,55.59,41.6092,1,2,1.0268,1,101,TRUE,16,8,1,3
794,2,64.96,46.2138,1,2,1.1122,1,101,TRUE,16,8,1,3
795,3,141.61,53.5451,2,3,0.6582,1,101,FALSE,16,8,1,3
796,4,158.04,63.2301,2,4,0.3903,1,101,TRUE,16,8,1,3
797,4,161.6,33.8526,2,4,0.5977,1,101,TRUE,16,8,1,3
798,4,155.89,31.6334,2,4,0.6686,1,101,TRUE,16,8,1,3
799,3,140.94,55.3951,2,3,0.7047,1,101,TRUE,16,8,1,3
800,2,70.9,50.4199,1,2,1.0356,1,101,FALSE,16,8,1,3
1,3,142.27,44.0997,2,3,0.9226,1,102,TRUE,1,1,1,1
2,4,153.7,78.0892,2,3,0.6264,1,102,TRUE,1,1,0,1
3,3,142.17,49.2575,2,3,0.8214,1,102,TRUE,1,1,1,1
4,3,135.13,20.9297,2,1,0.9715,1,102,TRUE,1,1,0,1
5,4,158.04,63.2301,2,3,0.712,1,102,TRUE,1,1,0,1
6,4,163.13,59.5866,2,4,3.3032,1,102,TRUE,1,1,1,1
7,3,141.16,65.6665,2,3,0.6484,1,102,TRUE,1,1,1,1
8,3,141.15,78.0885,2,3,0.4373,1,102,TRUE,1,1,1,1
9,3,142.28,40.8947,2,3,0.483,1,102,TRUE,1,1,1,1
10,4,162.11,74.4657,2,3,1.5587,1,102,TRUE,1,1,0,1
11,4,157.55,69.2825,2,4,2.4594,1,102,TRUE,1,1,1,1
12,4,158,25.8453,2,4,2.5183,1,102,TRUE,1,1,1,1
13,3,136.81,45.9589,2,3,0.6872,1,102,TRUE,1,1,1,1
14,3,138.76,51.6964,2,4,0.6106,1,102,TRUE,1,1,0,1
15,3,143.68,24.2725,2,3,0.3023,1,102,TRUE,1,1,1,1
16,4,156.49,77.0328,2,3,1.5534,1,102,TRUE,1,1,0,1
17,3,137.74,29.0633,2,4,0.7509,1,102,TRUE,1,1,0,1
18,4,162.86,44.7235,2,4,2.3089,1,102,TRUE,1,1,1,1
19,4,160.01,61.6598,2,4,2.854,1,102,TRUE,1,1,1,1
20,4,157.9,69.0949,2,4,2.5131,1,102,TRUE,1,1,1,1
21,3,136.96,49.3542,2,3,0.6581,1,102,TRUE,1,1,1,1
22,3,138.88,35.4286,2,3,0.422,1,102,TRUE,1,1,1,1
23,4,158.61,68.4981,2,4,2.5008,1,102,TRUE,1,1,1,1
24,4,155.97,62.0016,2,4,1.9343,1,102,TRUE,1,1,1,1
25,4,156.54,41.1652,2,3,2.327,1,102,TRUE,1,1,0,1
26,3,139.53,61.5364,2,3,0.6204,1,102,TRUE,1,1,1,1
27,4,157.38,16.6443,2,4,3.6027,1,102,TRUE,1,1,1,1
28,3,136.6,48.5203,2,3,0.5354,1,102,TRUE,1,1,1,1
29,3,141.79,48.5683,2,3,0.5371,1,102,TRUE,1,1,1,1
30,3,140.2,30.9274,2,3,0.5709,1,102,TRUE,1,1,1,1
31,3,140.04,39.1366,2,4,0.7071,1,102,TRUE,1,1,0,1
32,4,165.51,46.7351,2,4,2.1942,1,102,TRUE,1,1,1,1
33,3,140.01,59.7117,2,4,0.3923,1,102,TRUE,1,1,0,1
34,3,138.8,43.0981,2,4,0.3725,1,102,TRUE,1,1,0,1
35,3,132.06,53.2381,2,3,0.7776,1,102,TRUE,1,1,1,1
36,3,141.39,47.2187,2,4,1.697,1,102,TRUE,1,1,0,1
37,4,160.94,29.5711,2,4,2.2403,1,102,TRUE,1,1,1,1
38,3,141.8,56.119,2,4,0.5967,1,102,TRUE,1,1,0,1
39,3,144.86,66.2777,2,4,1.0169,1,102,TRUE,1,1,0,1
40,3,144.81,70.5191,2,4,2.3639,1,102,TRUE,1,1,0,1
41,3,140.03,43.2476,2,4,0.9923,1,102,TRUE,1,1,0,1
42,3,135.64,19.5358,2,4,0.6919,1,102,TRUE,1,1,0,1
43,4,155.79,60.4438,2,4,3.7079,1,102,TRUE,1,1,1,1
44,4,159.58,56.8492,2,3,3.3246,1,102,TRUE,1,1,0,1
45,3,136.13,66.4964,2,3,1.0173,1,102,TRUE,1,1,1,1
46,4,161.16,63.5739,2,4,3.0313,1,102,TRUE,1,1,1,1
47,4,161.09,68.9293,2,4,3.1311,1,102,TRUE,1,1,1,1
48,3,139.88,34.3947,2,4,0.8747,1,102,TRUE,1,1,0,1
49,4,162.56,34.7302,2,4,3.5154,1,102,TRUE,1,1,1,1
50,4,155.01,76.6251,2,4,1.6514,1,102,TRUE,1,1,1,1
51,3,139.32,41.2116,2,4,1.0023,1,102,TRUE,2,1,0,1
52,3,141.53,53.9094,2,3,1.4621,1,102,TRUE,2,1,1,1
53,4,164.95,43.6023,2,4,3.7377,1,102,TRUE,2,1,1,1
54,4,163.28,38.8865,2,4,3.433,1,102,TRUE,2,1,1,1
55,3,137.66,47.5866,2,4,0.5804,1,102,TRUE,2,1,0,1
56,4,155.37,36.2634,2,4,3.0253,1,102,TRUE,2,1,1,1
57,4,158.62,69.9257,2,4,3.1892,1,102,TRUE,2,1,1,1
58,3,139.46,54.3566,2,4,1.5307,1,102,TRUE,2,1,0,1
59,4,154.46,40.7676,2,4,3.2328,1,102,TRUE,2,1,1,1
60,3,140.4,43.3124,2,3,1.8284,1,102,TRUE,2,1,1,1
61,4,164.98,49.2367,2,3,4.2331,1,102,TRUE,2,1,0,1
62,3,143.08,42.1155,2,4,2.009,1,102,TRUE,2,1,0,1
63,4,160.37,29.7451,2,4,4.8437,1,102,TRUE,2,1,1,1
64,3,132.84,30.4643,2,3,1.8053,1,102,TRUE,2,1,1,1
65,3,140.04,44.9607,2,3,3.3394,1,102,TRUE,2,1,1,1
66,3,137.19,73.0392,2,4,2.3708,1,102,TRUE,2,1,0,1
67,4,160,39.1222,2,4,4.583,1,102,TRUE,2,1,1,1
68,4,160.97,26.1649,2,4,4.7635,1,102,TRUE,2,1,1,1
69,4,156.65,28.4049,2,4,5.0568,1,102,TRUE,2,1,1,1
70,4,159.95,59.3734,2,4,2.6017,1,102,TRUE,2,1,1,1
71,4,161.49,30.5557,2,3,2.5994,1,102,TRUE,2,1,0,1
72,3,140.73,18.1589,2,4,1.4257,1,102,TRUE,2,1,0,1
73,4,159.99,69.5459,2,3,3.8761,1,102,TRUE,2,1,0,1
74,4,162.5,51.8118,2,4,4.4179,1,102,TRUE,2,1,1,1
75,4,159.89,48.0207,2,4,4.4136,1,102,TRUE,2,1,1,1
76,4,157.38,42.2266,2,4,3.809,1,102,TRUE,2,1,1,1
77,3,135.86,26.7617,2,3,1.9256,1,102,TRUE,2,1,1,1
78,4,163.08,48.9684,2,4,3.3901,1,102,TRUE,2,1,1,1
79,3,138.57,53.3218,2,4,1.9318,1,102,TRUE,2,1,0,1
80,3,140.88,43.3533,2,4,2.1776,1,102,TRUE,2,1,0,1
81,4,161.69,61.6386,2,4,3.941,1,102,TRUE,2,1,1,1
82,4,160.26,59.9525,2,3,3.4282,1,102,TRUE,2,1,0,1
83,4,161.29,64.0755,2,3,4.1647,1,102,TRUE,2,1,0,1
84,4,159.88,40.3806,2,4,3.8155,1,102,TRUE,2,1,1,1
85,3,142.93,39.7986,2,4,2.3875,1,102,TRUE,2,1,0,1
86,4,160.61,70.9509,2,3,4.6549,1,102,TRUE,2,1,0,1
87,4,166.53,37.4698,2,4,6.0699,1,102,TRUE,2,1,1,1
88,3,138.19,53.4845,2,3,2.6694,1,102,TRUE,2,1,1,1
89,4,162.71,56.7381,2,4,3.9682,1,102,TRUE,2,1,1,1
90,4,163.53,61.0451,2,4,5.1353,1,102,TRUE,2,1,1,1
91,3,140.96,34.0402,2,3,2.5796,1,102,TRUE,2,1,1,1
92,3,140.97,31.7029,2,4,2.7455,1,102,TRUE,2,1,0,1
93,4,159.94,46.3794,2,4,6.1021,1,102,TRUE,2,1,1,1
94,3,141.22,61.7905,2,4,2.4523,1,102,TRUE,2,1,0,1
95,3,141.6,46.8807,2,3,2.8691,1,102,TRUE,2,1,1,1
96,4,163.15,23.8362,2,4,3.8556,1,102,TRUE,2,1,1,1
97,4,158.98,62.7649,2,3,3.2742,1,102,TRUE,2,1,0,1
98,4,165.01,26.1483,2,4,4.7129,1,102,TRUE,2,1,1,1
99,4,157.43,51.8649,2,3,2.688,1,102,TRUE,2,1,0,1
100,4,160.51,41.0317,2,4,3.6151,1,102,TRUE,2,1,1,1
101,1,63.49,80.8734,1,3,0.7568,1,102,FALSE,3,2,0,2
102,2,39.3,19.6688,1,3,0.602,1,102,TRUE,3,2,0,2
103,1,56.78,72.6646,1,2,0.502,1,102,TRUE,3,2,0,2
104,1,53.52,54.6029,1,1,0.9665,1,102,TRUE,3,2,1,2
105,1,38.18,52.2746,1,2,1.4064,1,102,TRUE,3,2,0,2
106,2,55.14,39.7285,1,1,1.2253,1,102,TRUE,3,2,0,2
107,2,65.25,46.9112,1,2,2.9395,1,102,TRUE,3,2,1,2
108,1,36.16,60.356,1,2,1.1155,1,102,TRUE,3,2,0,2
109,2,71.68,56.6454,1,1,3.0984,1,102,TRUE,3,2,0,2
110,1,50.61,70.4614,1,1,0.7368,1,102,TRUE,3,2,1,2
111,1,46.8,55.4938,1,2,1.6741,1,102,TRUE,3,2,0,2
112,1,33.48,51.8051,1,1,1.2582,1,102,TRUE,3,2,1,2
113,2,43.01,28.3447,1,1,3.3579,1,102,TRUE,3,2,0,2
114,1,69.24,76.5224,1,2,1.1372,1,102,TRUE,3,2,0,2
115,1,58.53,74.2752,1,1,1.367,1,102,TRUE,3,2,1,2
116,2,57.91,55.4056,1,2,2.5176,1,102,TRUE,3,2,1,2
117,1,48.78,64.0946,1,1,0.6315,1,102,TRUE,3,2,1,2
118,2,59.93,48.898,1,2,2.0373,1,102,TRUE,3,2,1,2
119,1,41.04,46.6625,1,1,0.7456,1,102,TRUE,3,2,1,2
120,1,33.99,45.2383,1,2,0.6987,1,102,TRUE,3,2,0,2
121,1,49.26,73.6872,1,1,1.7386,1,102,TRUE,3,2,1,2
122,1,29.75,39.0284,1,2,2.1155,1,102,TRUE,3,2,0,2
123,1,54.83,67.3295,1,1,1.4578,1,102,TRUE,3,2,1,2
124,2,43.92,29.4522,1,2,2.8616,1,102,TRUE,3,2,1,2
125,1,43.98,56.2051,1,2,1.4961,1,102,TRUE,3,2,0,2
126,2,39.56,29.5064,1,1,2.6394,1,102,TRUE,3,2,0,2
127,2,55.64,48.7739,1,1,2.2879,1,102,TRUE,3,2,0,2
128,1,27.16,48.6998,1,2,0.8796,1,102,TRUE,3,2,0,2
129,1,44.71,65.8308,1,1,3.72,1,102,TRUE,3,2,1,2
130,2,61.03,38.79,1,1,4.016,1,102,TRUE,3,2,0,2
131,1,35.26,44.7157,1,2,3.0729,1,102,TRUE,3,2,0,2
132,1,49.24,62.0892,1,2,2.0959,1,102,TRUE,3,2,0,2
133,2,62.01,49.7594,1,2,3.6707,1,102,TRUE,3,2,1,2
134,1,47.28,58.408,1,2,2.6806,1,102,TRUE,3,2,0,2
135,2,59.24,41.1206,1,2,4.7197,1,102,TRUE,3,2,1,2
136,2,63.93,56.556,1,2,2.1592,1,102,TRUE,3,2,1,2
137,1,52.83,59.6936,1,1,1.9742,1,102,TRUE,3,2,1,2
138,2,50.35,40.0382,1,2,2.0935,1,102,TRUE,3,2,1,2
139,1,65.33,71.2844,1,1,1.4232,1,102,TRUE,3,2,1,2
140,1,42.14,55.8309,1,1,3.0052,1,102,TRUE,3,2,1,2
141,2,56,43.4166,1,2,2.33,1,102,TRUE,3,2,1,2
142,1,48.39,62.0011,1,1,1.6825,1,102,TRUE,3,2,1,2
143,2,85.03,65.8945,1,2,1.4613,1,102,TRUE,3,2,1,2
144,2,40.8,22.1994,1,2,3.1771,1,102,TRUE,3,2,1,2
145,2,51.39,34.8805,1,1,1.7106,1,102,TRUE,3,2,0,2
146,1,31.81,46.119,1,2,4.5093,1,102,TRUE,3,2,0,2
147,1,35.21,48.4576,1,1,4.0737,1,102,TRUE,3,2,1,2
148,2,59.57,42.0453,1,2,4.2034,1,102,TRUE,3,2,1,2
149,1,41.73,63.1552,1,1,3.5197,1,102,TRUE,3,2,1,2
150,1,38.85,51.7517,1,2,2.8476,1,102,TRUE,3,2,0,2
151,1,32.32,48.6258,1,1,3.823,1,102,TRUE,4,2,1,2
152,2,45.03,33.2449,1,2,3.9789,1,102,TRUE,4,2,1,2
153,1,26.53,43.8615,1,2,4.9359,1,102,TRUE,4,2,0,2
154,2,38.19,27.2222,1,1,4.1875,1,102,TRUE,4,2,0,2
155,1,70.61,75.8167,1,2,1.3254,1,102,TRUE,4,2,0,2
156,1,47.94,64.0403,1,2,2.2358,1,102,TRUE,4,2,0,2
157,1,42.37,57.9196,1,2,4.2293,1,102,TRUE,4,2,0,2
158,2,47.82,47.3857,1,4,5.2292,1,102,TRUE,4,2,0,2
159,2,42.04,26.4453,1,2,3.6148,1,102,TRUE,4,2,1,2
160,1,61.3,72.304,1,1,1.0748,1,102,TRUE,4,2,1,2
161,2,58.2,46.0994,1,2,1.9101,1,102,TRUE,4,2,1,2
162,2,85.03,71.3317,1,2,0.7835,1,102,TRUE,4,2,1,2
163,2,58.87,45.053,1,2,1.8069,1,102,TRUE,4,2,1,2
164,2,57.29,49.323,1,2,1.7091,1,102,TRUE,4,2,1,2
165,1,41.42,57.5114,1,2,2.1984,1,102,TRUE,4,2,0,2
166,1,34.32,49.3407,1,1,1.0335,1,102,TRUE,4,2,1,2
167,2,71.66,62.6142,1,1,1.3107,1,102,TRUE,4,2,0,2
168,1,44.11,60.8159,1,1,0.9656,1,102,TRUE,4,2,1,2
169,1,47.41,60.2221,1,2,1.3176,1,102,TRUE,4,2,0,2
170,2,65.13,46.5956,1,2,1.5647,1,102,TRUE,4,2,1,2
171,2,70.73,62.4698,1,1,1.0362,1,102,TRUE,4,2,0,2
172,1,39.53,49.3188,1,2,1.7186,1,102,TRUE,4,2,0,2
173,2,52.51,42.1061,1,1,3.3732,1,102,TRUE,4,2,0,2
174,2,42.33,31.7855,1,1,4.1281,1,102,TRUE,4,2,0,2
175,1,39.61,64.9724,1,1,1.5641,1,102,TRUE,4,2,1,2
176,1,64.86,80.0565,1,1,2.3876,1,102,TRUE,4,2,1,2
177,2,53.62,43.4221,1,2,2.3378,1,102,TRUE,4,2,1,2
178,1,42.88,57.0761,1,2,1.4662,1,102,TRUE,4,2,0,2
179,2,71.12,57.2799,1,1,0.427,1,102,TRUE,4,2,0,2
180,2,45.73,34.5846,1,1,1.4699,1,102,TRUE,4,2,0,2
181,2,54.45,49.3125,1,2,2.6626,1,102,TRUE,4,2,1,2
182,2,57.66,40.2012,1,2,2.7694,1,102,TRUE,4,2,1,2
183,1,37.16,54.0264,1,1,3.0321,1,102,TRUE,4,2,1,2
184,2,55.47,44.7599,1,1,2.0519,1,102,TRUE,4,2,0,2
185,1,43.15,51.9839,1,2,3.1088,1,102,TRUE,4,2,0,2
186,1,41.53,51.0575,1,2,3.0905,1,102,TRUE,4,2,0,2
187,1,39.91,59.9886,1,2,2.9126,1,102,TRUE,4,2,0,2
188,1,42.79,59.2211,1,2,3.1903,1,102,TRUE,4,2,0,2
189,2,61.08,44.3351,1,1,2.0404,1,102,TRUE,4,2,0,2
190,1,41.94,54.1238,1,1,3.8094,1,102,TRUE,4,2,1,2
191,2,49.74,40.9454,1,2,2.9019,1,102,TRUE,4,2,1,2
192,2,68.35,55.5444,1,2,1.3753,1,102,TRUE,4,2,1,2
193,2,56.67,53.0573,1,2,2.8782,1,102,TRUE,4,2,1,2
194,2,66.89,46.2225,1,2,1.6962,1,102,TRUE,4,2,1,2
195,2,68.33,52.9045,1,1,1.6743,1,102,TRUE,4,2,0,2
196,1,56.43,67.3414,1,1,2.6583,1,102,TRUE,4,2,1,2
197,1,50.64,62.1329,1,2,1.8457,1,102,TRUE,4,2,0,2
198,1,16.25,35.6217,1,4,6.5428,1,102,TRUE,4,2,0,2
199,1,46.31,53.5411,1,1,1.0908,1,102,TRUE,4,2,1,2
200,1,54.92,68.0167,1,2,0.3581,1,102,TRUE,4,2,0,2
201,2,49.17,25.2887,1,2,1.5329,1,102,TRUE,5,3,1,2
202,2,54.56,36.5784,1,2,0.6701,1,102,TRUE,5,3,1,2
203,2,70.9,50.4199,1,2,0.2424,1,102,TRUE,5,3,1,2
204,1,30.68,43.4448,1,2,0.2556,1,102,TRUE,5,3,0,2
205,1,36.65,47.4238,1,1,0.2493,1,102,TRUE,5,3,1,2
206,2,48.27,43.5102,1,1,0.2625,1,102,TRUE,5,3,0,2
207,2,61.39,40.237,1,2,0.5922,1,102,TRUE,5,3,1,2
208,1,42.82,58.3399,1,2,0.4395,1,102,TRUE,5,3,0,2
209,1,33.11,51.9495,1,1,0.3214,1,102,TRUE,5,3,1,2
210,1,44.8,55.456,1,1,0.4839,1,102,TRUE,5,3,1,2
211,2,73.07,65.7769,1,1,0.9277,1,102,TRUE,5,3,0,2
212,1,47.93,70.0672,1,2,0.7743,1,102,TRUE,5,3,0,2
213,2,62.87,35.509,1,2,0.7869,1,102,TRUE,5,3,1,2
214,1,45.57,61.2775,1,2,1.5545,1,102,TRUE,5,3,0,2
215,1,51.86,71.4688,1,2,1.6235,1,102,TRUE,5,3,0,2
216,2,45.87,32.9247,1,1,2.6971,1,102,TRUE,5,3,0,2
217,2,47.2,33.3291,1,2,2.3115,1,102,TRUE,5,3,1,2
218,1,25.18,46.1766,1,1,3.2808,1,102,TRUE,5,3,1,2
219,2,58.3,41.2841,1,1,1.5783,1,102,TRUE,5,3,0,2
220,1,62.28,75.0104,1,1,0.2782,1,102,TRUE,5,3,1,2
221,2,67.18,48.7084,1,1,0.6901,1,102,TRUE,5,3,0,2
222,2,37.27,19.5729,1,2,0.3143,1,102,TRUE,5,3,1,2
223,2,43.29,27.8181,1,1,0.5888,1,102,TRUE,5,3,0,2
224,2,42.5,25.5918,1,2,0.7049,1,102,TRUE,5,3,1,2
225,1,62.51,65.278,1,1,0.7475,1,102,TRUE,5,3,1,2
226,1,33.46,45.2113,1,2,0.9407,1,102,TRUE,5,3,0,2
227,1,41.07,60.531,1,2,0.8747,1,102,TRUE,5,3,0,2
228,1,32.12,52.0736,1,2,2.8833,1,102,TRUE,5,3,0,2
229,1,57.3,58.0281,1,1,0.8342,1,102,TRUE,5,3,1,2
230,2,59.14,39.6095,1,2,1.1837,1,102,TRUE,5,3,1,2
231,2,56.79,46.4723,1,2,1.007,1,102,TRUE,5,3,1,2
232,1,45.63,51.4351,1,2,0.3817,1,102,TRUE,5,3,0,2
233,1,35.29,49.6903,1,2,0.2824,1,102,TRUE,5,3,0,2
234,1,65.29,81.6581,1,2,0.2277,1,102,TRUE,5,3,0,2
235,1,52.66,68.0357,1,2,0.4481,1,102,TRUE,5,3,0,2
236,2,38.58,27.2605,1,1,1.145,1,102,TRUE,5,3,0,2
237,1,62.08,77.808,1,1,0.7746,1,102,TRUE,5,3,1,2
238,2,44.69,32.6865,1,1,1.6461,1,102,TRUE,5,3,0,2
239,2,31.17,19.0699,1,2,2.1434,1,102,TRUE,5,3,1,2
240,1,32.96,50.5285,1,2,1.8471,1,102,TRUE,5,3,0,2
241,1,45.08,49.4013,1,1,1.3524,1,102,TRUE,5,3,1,2
242,2,46.79,30.3785,1,2,3.9927,1,102,TRUE,5,3,1,2
243,2,63.66,49.5938,1,1,0.8139,1,102,TRUE,5,3,0,2
244,2,52.34,37.5544,1,2,0.4012,1,102,TRUE,5,3,1,2
245,2,54.9,47.9243,1,2,0.8801,1,102,TRUE,5,3,1,2
246,2,43.66,25.1508,1,2,0.4037,1,102,TRUE,5,3,1,2
247,2,55.37,43.7264,1,2,0.2908,1,102,TRUE,5,3,1,2
248,2,54.94,36.5409,1,2,0.342,1,102,TRUE,5,3,1,2
249,1,56,70.4954,1,2,0.2872,1,102,TRUE,5,3,0,2
250,2,55.78,39.0665,1,2,0.8237,1,102,TRUE,5,3,1,2
251,1,39.39,47.2078,1,2,0.741,1,102,TRUE,6,3,0,2
252,1,30.38,46.4895,1,1,0.5711,1,102,TRUE,6,3,1,2
253,1,56.62,75.5399,1,2,0.8513,1,102,TRUE,6,3,0,2
254,2,39.84,37.2136,1,2,0.9108,1,102,TRUE,6,3,1,2
255,1,44.88,63.6372,1,2,0.6713,1,102,TRUE,6,3,0,2
256,2,59.38,33.9115,1,2,0.6403,1,102,TRUE,6,3,1,2
257,2,37.15,24.716,1,1,0.5338,1,102,TRUE,6,3,0,2
258,2,74.61,59.4348,1,2,0.7326,1,102,TRUE,6,3,1,2
259,2,67.49,51.7045,1,2,0.6061,1,102,TRUE,6,3,1,2
260,1,34.9,57.7166,1,1,0.7332,1,102,TRUE,6,3,1,2
261,1,23.58,37.7031,1,1,0.4546,1,102,TRUE,6,3,1,2
262,2,52.17,34.2479,1,2,0.6037,1,102,TRUE,6,3,1,2
263,2,67.06,53.808,1,2,0.7307,1,102,TRUE,6,3,1,2
264,1,46.5,55.7953,1,1,0.8284,1,102,TRUE,6,3,1,2
265,2,56.57,46.068,1,2,0.7057,1,102,TRUE,6,3,1,2
266,2,59.24,40.4299,1,2,0.7088,1,102,TRUE,6,3,1,2
267,1,31.98,44.462,1,1,0.6228,1,102,TRUE,6,3,1,2
268,2,45.08,37.8588,1,2,0.5015,1,102,TRUE,6,3,1,2
269,1,57.88,65.1439,1,1,0.2083,1,102,TRUE,6,3,1,2
270,2,40.41,22.4533,1,2,0.319,1,102,TRUE,6,3,1,2
271,1,45.22,57.3917,1,1,0.2414,1,102,TRUE,6,3,1,2
272,2,57.94,46.5245,1,2,0.4948,1,102,TRUE,6,3,1,2
273,1,45.98,50.4426,1,1,0.2178,1,102,TRUE,6,3,1,2
274,2,58.52,40.0246,1,2,0.3044,1,102,TRUE,6,3,1,2
275,1,43.12,49.3559,1,1,0.2677,1,102,TRUE,6,3,1,2
276,2,42.95,37.3141,1,2,0.2484,1,102,TRUE,6,3,1,2
277,1,37.81,56.4714,1,2,0.6214,1,102,TRUE,6,3,0,2
278,1,55.76,69.1813,1,1,0.4642,1,102,TRUE,6,3,1,2
279,2,71.73,53.3838,1,1,0.5727,1,102,TRUE,6,3,0,2
280,2,63.24,51.4858,1,2,0.3616,1,102,TRUE,6,3,1,2
281,1,44.7,60.8019,1,1,0.5619,1,102,TRUE,6,3,1,2
282,2,57.61,38.5664,1,2,0.6584,1,102,TRUE,6,3,1,2
283,1,31.52,54.5756,1,1,0.5667,1,102,TRUE,6,3,1,2
284,1,39.23,53.5157,1,1,0.6071,1,102,TRUE,6,3,1,2
285,1,32.29,49.3277,1,1,0.4458,1,102,TRUE,6,3,1,2
286,1,27.15,39.9379,1,1,0.3471,1,102,TRUE,6,3,1,2
287,2,42.65,25.7749,1,1,0.5963,1,102,TRUE,6,3,0,2
288,2,47.63,41.8302,1,2,0.5205,1,102,TRUE,6,3,1,2
289,2,52.53,39.5201,1,2,0.4267,1,102,TRUE,6,3,1,2
290,2,63.27,52.4417,1,2,1.0007,1,102,TRUE,6,3,1,2
291,1,30.18,53.1012,1,1,0.5672,1,102,TRUE,6,3,1,2
292,2,65.61,48.7518,1,2,0.6315,1,102,TRUE,6,3,1,2
293,2,64.66,50.7399,1,2,0.3492,1,102,TRUE,6,3,1,2
294,2,56.55,43.3002,1,2,0.3185,1,102,TRUE,6,3,1,2
295,1,41.63,52.1208,1,2,0.8729,1,102,TRUE,6,3,0,2
296,1,40.51,48.4157,1,1,0.5135,1,102,TRUE,6,3,1,2
297,1,56.43,66.384,1,2,0.6199,1,102,TRUE,6,3,0,2
298,2,46.43,35.241,1,2,0.7674,1,102,TRUE,6,3,1,2
299,1,39.2,58.7337,1,1,0.6155,1,102,TRUE,6,3,1,2
300,1,66.98,72.4467,1,2,0.7979,1,102,TRUE,6,3,0,2
301,2,45.26,35.8385,1,2,0.9094,1,102,TRUE,7,4,1,2
302,2,63.76,48.7004,1,2,0.6074,1,102,TRUE,7,4,1,2
303,1,51.8,69.5598,1,1,0.4856,1,102,TRUE,7,4,1,2
304,2,49.38,35.2368,1,2,0.6735,1,102,TRUE,7,4,1,2
305,1,36.38,46.2563,1,2,0.6776,1,102,TRUE,7,4,0,2
306,2,58.66,36.7271,1,2,0.5508,1,102,TRUE,7,4,1,2
307,2,67.94,51.9665,1,2,0.5355,1,102,TRUE,7,4,1,2
308,2,62.64,53.7811,1,1,0.5932,1,102,TRUE,7,4,0,2
309,1,47.08,60.2644,1,2,0.5573,1,102,TRUE,7,4,0,2
310,1,40.42,62.1252,1,1,0.699,1,102,TRUE,7,4,1,2
311,2,75.9,66.7031,1,2,1.1497,1,102,TRUE,7,4,1,2
312,2,72.62,58.0071,1,2,0.4967,1,102,TRUE,7,4,1,2
313,1,32.77,51.7006,1,1,0.6015,1,102,TRUE,7,4,1,2
314,1,58.41,73.7193,1,2,0.8739,1,102,TRUE,7,4,0,2
315,2,59.09,42.2948,1,2,0.7689,1,102,TRUE,7,4,1,2
316,2,58.75,51.8239,1,2,2.0092,1,102,TRUE,7,4,1,2
317,2,58.79,48.5076,1,2,1.3344,1,102,TRUE,7,4,1,2
318,1,41.88,48.9633,1,2,0.9595,1,102,TRUE,7,4,0,2
319,1,53.61,70.4623,1,2,0.7406,1,102,TRUE,7,4,0,2
320,1,22.2,31.8968,1,1,0.1067,1,102,TRUE,7,4,1,2
321,2,70.89,56.7536,1,2,1.5035,1,102,TRUE,7,4,1,2
322,1,41.86,53.7319,1,2,1.0724,1,102,TRUE,7,4,0,2
323,1,52.11,63.9352,1,2,0.8727,1,102,TRUE,7,4,0,2
324,1,45.63,60.533,1,1,0.7053,1,102,TRUE,7,4,1,2
325,1,40.47,53.1423,1,1,0.6683,1,102,TRUE,7,4,1,2
326,1,33.11,47.1488,1,1,0.6007,1,102,TRUE,7,4,1,2
327,1,40.93,51.1754,1,1,0.5754,1,102,TRUE,7,4,1,2
328,2,71.34,56.4532,1,2,0.6792,1,102,TRUE,7,4,1,2
329,1,50,59.1192,1,2,0.6588,1,102,TRUE,7,4,0,2
330,1,47.3,57.9623,1,1,0.5402,1,102,TRUE,7,4,1,2
331,2,67.43,50.2263,1,2,0.6458,1,102,TRUE,7,4,1,2
332,1,44.56,62.3508,1,1,0.5149,1,102,TRUE,7,4,1,2
333,2,55.59,41.6092,1,2,0.3572,1,102,TRUE,7,4,1,2
334,1,42.2,56.2748,1,1,0.6298,1,102,TRUE,7,4,1,2
335,2,53.92,42.6157,1,2,0.6913,1,102,TRUE,7,4,1,2
336,2,50.18,36.2137,1,2,0.7424,1,102,TRUE,7,4,1,2
337,2,65.84,52.3953,1,2,0.5911,1,102,TRUE,7,4,1,2
338,2,59.2,40.9861,1,2,0.7663,1,102,TRUE,7,4,1,2
339,2,37.19,18.7038,1,1,0.5983,1,102,TRUE,7,4,0,2
340,2,40.9,25.3905,1,2,1.0666,1,102,TRUE,7,4,1,2
341,1,53.97,65.2697,1,1,0.6223,1,102,TRUE,7,4,1,2
342,1,44.27,60.4302,1,2,1.1489,1,102,TRUE,7,4,0,2
343,2,48.1,36.7555,1,1,0.5865,1,102,TRUE,7,4,0,2
344,2,72.32,57.309,1,2,0.7433,1,102,TRUE,7,4,1,2
345,2,52.93,37.5122,1,2,0.4962,1,102,TRUE,7,4,1,2
346,1,47.64,58.6239,1,2,0.5472,1,102,TRUE,7,4,0,2
347,1,57.05,71.5351,1,2,0.7452,1,102,TRUE,7,4,0,2
348,2,60.17,44.6186,1,2,0.5034,1,102,TRUE,7,4,1,2
349,2,44.32,33.6858,1,2,0.6743,1,102,TRUE,7,4,1,2
350,2,49.08,41.1032,1,2,0.654,1,102,TRUE,7,4,1,2
351,2,61.3,36.3961,1,2,1.0307,1,102,TRUE,8,4,1,2
352,2,73.7,64.5287,1,2,0.8041,1,102,TRUE,8,4,1,2
353,2,72.43,60.04,1,2,0.507,1,102,TRUE,8,4,1,2
354,2,48.58,33.5663,1,1,0.9341,1,102,TRUE,8,4,0,2
355,1,30.23,45.0971,1,1,0.7569,1,102,TRUE,8,4,1,2
356,2,57.99,41.9436,1,2,0.8055,1,102,TRUE,8,4,1,2
357,1,32.99,47.0211,1,1,0.5082,1,102,TRUE,8,4,1,2
358,1,54.91,68.0724,1,2,0.6467,1,102,TRUE,8,4,0,2
359,2,65.78,55.3935,1,2,0.6246,1,102,TRUE,8,4,1,2
360,2,67.37,48.246,1,2,0.6545,1,102,TRUE,8,4,1,2
361,2,54.19,39.1965,1,2,0.7874,1,102,TRUE,8,4,1,2
362,2,48.48,33.8375,1,2,0.4829,1,102,TRUE,8,4,1,2
363,1,56.58,66.8849,1,2,0.5345,1,102,TRUE,8,4,0,2
364,1,35.98,53.4972,1,1,0.3736,1,102,TRUE,8,4,1,2
365,1,49.62,62.2038,1,1,2.118,1,102,TRUE,8,4,1,2
366,1,43.94,55.0103,1,1,0.5513,1,102,TRUE,8,4,1,2
367,1,54.07,60.0586,1,2,0.5922,1,102,TRUE,8,4,0,2
368,2,54.04,39.0406,1,2,0.5963,1,102,TRUE,8,4,1,2
369,2,61.37,47.6988,1,2,0.6034,1,102,TRUE,8,4,1,2
370,1,46.82,57.034,1,2,0.6184,1,102,TRUE,8,4,0,2
371,1,27.35,49.0343,1,1,2.7897,1,102,TRUE,8,4,1,2
372,1,39.51,58.6293,1,1,2.3477,1,102,TRUE,8,4,1,2
373,1,51.83,68.122,1,2,3.3313,1,102,TRUE,8,4,0,2
374,1,28.89,46.0565,1,2,0.704,1,102,TRUE,8,4,0,2
375,2,39.92,33.2739,1,1,0.3674,1,102,TRUE,8,4,0,2
376,2,51.73,35.3388,1,2,0.501,1,102,TRUE,8,4,1,2
377,2,31.98,19.3176,1,2,1.112,1,102,TRUE,8,4,1,2
378,2,75.86,58.7367,1,2,0.6741,1,102,TRUE,8,4,1,2
379,2,66.61,50.4249,1,2,0.5416,1,102,TRUE,8,4,1,2
380,2,73.09,51.9929,1,2,0.4386,1,102,TRUE,8,4,1,2
381,2,49.49,33.265,1,2,0.4124,1,102,TRUE,8,4,1,2
382,1,57.61,69.7033,1,2,0.427,1,102,TRUE,8,4,0,2
383,1,53.84,76.223,1,2,0.5099,1,102,TRUE,8,4,0,2
384,1,32.67,48.2419,1,1,0.5253,1,102,TRUE,8,4,1,2
385,2,55.36,37.1783,1,2,0.575,1,102,TRUE,8,4,1,2
386,2,74.43,63.0726,1,2,0.5747,1,102,TRUE,8,4,1,2
387,1,54.37,64.6515,1,1,0.7345,1,102,TRUE,8,4,1,2
388,2,61.69,42.0533,1,2,0.8,1,102,TRUE,8,4,1,2
389,1,39.78,56.6358,1,1,0.6628,1,102,TRUE,8,4,1,2
390,2,62.31,48.7585,1,2,0.7231,1,102,TRUE,8,4,1,2
391,1,52.95,71.304,1,1,2.0773,1,102,TRUE,8,4,1,2
392,1,40.81,58.8824,1,1,1.4959,1,102,TRUE,8,4,1,2
393,1,43.25,59.1482,1,1,0.4981,1,102,TRUE,8,4,1,2
394,1,67.04,83.1983,1,2,1.3253,1,102,TRUE,8,4,0,2
395,1,43.06,53.5981,1,1,0.5475,1,102,TRUE,8,4,1,2
396,2,66.5,49.9604,1,2,0.7885,1,102,TRUE,8,4,1,2
397,2,55.91,45.3068,1,2,0.9,1,102,TRUE,8,4,1,2
398,1,18.55,39.8415,1,1,1.0229,1,102,TRUE,8,4,1,2
399,2,57.71,41.4789,1,2,1.0127,1,102,TRUE,8,4,1,2
400,2,60.12,42.4431,1,2,1.4987,1,102,TRUE,8,4,1,2
401,2,58.58,47.4366,1,2,1.4154,1,102,TRUE,9,5,1,2
402,1,43.59,63.9925,1,1,0.6851,1,102,TRUE,9,5,1,2
403,2,48.31,41.0556,1,1,0.6247,1,102,TRUE,9,5,0,2
404,1,32,51.5728,1,1,0.7554,1,102,TRUE,9,5,1,2
405,2,71.55,58.3545,1,2,0.5722,1,102,TRUE,9,5,1,2
406,2,85.62,69.6135,1,2,0.5167,1,102,TRUE,9,5,1,2
407,1,63.05,83.0385,1,2,0.631,1,102,TRUE,9,5,0,2
408,1,43,52.4435,1,2,0.5457,1,102,TRUE,9,5,0,2
409,2,79.88,58.9603,1,2,0.4959,1,102,TRUE,9,5,1,2
410,2,26.4,16.1763,1,1,0.7791,1,102,TRUE,9,5,0,2
411,2,54.34,34.8238,1,2,0.8877,1,102,TRUE,9,5,1,2
412,1,50.05,61.8338,1,2,0.9791,1,102,TRUE,9,5,0,2
413,2,69.12,54.1516,1,2,0.6476,1,102,TRUE,9,5,1,2
414,2,27.66,20.8166,1,1,0.5086,1,102,TRUE,9,5,0,2
415,1,46.5,57.0052,1,1,1.0841,1,102,TRUE,9,5,1,2
416,1,48.7,58.0597,1,1,0.4476,1,102,TRUE,9,5,1,2
417,2,64.96,46.2138,1,2,0.4524,1,102,TRUE,9,5,1,2
418,2,55.78,40.236,1,2,0.5938,1,102,TRUE,9,5,1,2
419,2,76.63,60.8833,1,2,0.7766,1,102,TRUE,9,5,1,2
420,1,47.83,68.8457,1,1,0.72,1,102,TRUE,9,5,1,2
421,2,69.31,61.6089,1,2,0.9384,1,102,TRUE,9,5,1,2
422,2,31.63,21.1952,1,2,1.2117,1,102,TRUE,9,5,1,2
423,1,52.27,67.9568,1,2,0.9775,1,102,TRUE,9,5,0,2
424,2,62.71,54.4399,1,2,0.6461,1,102,TRUE,9,5,1,2
425,2,76.76,57.9073,1,2,0.635,1,102,TRUE,9,5,1,2
426,2,73.26,61.229,1,2,0.5528,1,102,TRUE,9,5,1,2
427,2,71.28,48.5884,1,2,0.5776,1,102,TRUE,9,5,1,2
428,1,64.63,78.1647,1,2,0.5694,1,102,TRUE,9,5,0,2
429,1,44.85,58.2915,1,1,0.5589,1,102,TRUE,9,5,1,2
430,2,46.13,37.6778,1,1,0.6154,1,102,TRUE,9,5,0,2
431,1,62.7,78.3455,1,2,0.9306,1,102,TRUE,9,5,0,2
432,2,53.05,41.5715,1,2,0.5692,1,102,TRUE,9,5,1,2
433,2,51.11,34.233,1,2,0.6734,1,102,TRUE,9,5,1,2
434,1,40.19,56.1501,1,1,1.566,1,102,TRUE,9,5,1,2
435,2,72.37,65.281,1,2,1.1494,1,102,TRUE,9,5,1,2
436,1,23.57,43.5673,1,1,2.254,1,102,TRUE,9,5,1,2
437,2,74.49,54.0217,1,2,0.6577,1,102,TRUE,9,5,1,2
438,1,37.2,53.0411,1,1,1.702,1,102,TRUE,9,5,1,2
439,1,50.27,66.5458,1,1,1.7281,1,102,TRUE,9,5,1,2
440,1,50.29,57.7753,1,1,2.4731,1,102,TRUE,9,5,1,2
441,1,41.99,55.152,1,1,2.1238,1,102,TRUE,9,5,1,2
442,1,36.65,54.0013,1,1,2.133,1,102,TRUE,9,5,1,2
443,2,76.2,51.8129,1,4,0.0618,1,102,TRUE,9,5,0,2
444,1,42.94,62.5351,1,1,1.6473,1,102,TRUE,9,5,1,2
445,2,51.53,32.7494,1,2,1.3474,1,102,TRUE,9,5,1,2
446,2,60.77,44.9936,1,2,2.148,1,102,TRUE,9,5,1,2
447,2,59.46,45.2104,1,2,0.7397,1,102,TRUE,9,5,1,2
448,1,39.72,53.5219,1,2,0.5733,1,102,TRUE,9,5,0,2
449,2,46.24,36.2309,1,1,0.986,1,102,TRUE,9,5,0,2
450,1,28.48,48.6025,1,1,1.7506,1,102,TRUE,9,5,1,2
451,2,63.75,45.7779,1,2,0.8771,1,102,TRUE,10,5,1,2
452,2,70.58,52.9016,1,2,0.4887,1,102,TRUE,10,5,1,2
453,1,39.48,58.4289,1,2,1.5403,1,102,TRUE,10,5,0,2
454,1,50.07,64.8038,1,4,0.7218,1,102,TRUE,10,5,0,2
455,2,50.34,37.3528,1,2,1.2405,1,102,TRUE,10,5,1,2
456,1,38.17,52,1,1,2.2136,1,102,TRUE,10,5,1,2
457,1,47.03,57.4335,1,1,1.8347,1,102,TRUE,10,5,1,2
458,2,81.46,67.4281,1,2,0.9834,1,102,TRUE,10,5,1,2
459,2,41.22,24.1867,1,2,1.3506,1,102,TRUE,10,5,1,2
460,2,43.74,22.5241,1,2,0.9912,1,102,TRUE,10,5,1,2
461,2,50.21,36.0631,1,1,1.4779,1,102,TRUE,10,5,0,2
462,2,62.3,53.0643,1,2,0.59,1,102,TRUE,10,5,1,2
463,2,47.09,26.3776,1,2,1.1415,1,102,TRUE,10,5,1,2
464,1,52.26,61.8207,1,2,0.7103,1,102,TRUE,10,5,0,2
465,1,32.32,44.6768,1,2,1.0136,1,102,TRUE,10,5,0,2
466,2,46.32,31.0904,1,2,1.0488,1,102,TRUE,10,5,1,2
467,1,48.44,61.2359,1,2,0.6775,1,102,TRUE,10,5,0,2
468,2,58.27,45.5099,1,2,0.6461,1,102,TRUE,10,5,1,2
469,1,18.31,38.61,1,1,0.7871,1,102,TRUE,10,5,1,2
470,1,53.76,63.884,1,2,1.3465,1,102,TRUE,10,5,0,2
471,1,27.34,36.279,1,1,0.6561,1,102,TRUE,10,5,1,2
472,1,53.14,62.8061,1,2,0.7892,1,102,TRUE,10,5,0,2
473,1,26.3,41.6454,1,1,0.5529,1,102,TRUE,10,5,1,2
474,1,35.79,54.8962,1,1,0.6101,1,102,TRUE,10,5,1,2
475,1,50.37,56.2839,1,1,0.9763,1,102,TRUE,10,5,1,2
476,1,30.39,40.5124,1,1,0.6718,1,102,TRUE,10,5,1,2
477,1,58.29,75.0585,1,1,0.572,1,102,TRUE,10,5,1,2
478,1,42.24,52.3392,1,1,0.7005,1,102,TRUE,10,5,1,2
479,1,11.94,25.6277,1,1,0.5833,1,102,TRUE,10,5,1,2
480,2,50.36,34.0384,1,1,0.5911,1,102,TRUE,10,5,0,2
481,1,50.12,53.8783,1,2,0.499,1,102,TRUE,10,5,0,2
482,2,65.43,50.1249,1,2,0.7074,1,102,TRUE,10,5,1,2
483,1,58.6,69.8384,1,2,0.5902,1,102,TRUE,10,5,0,2
484,2,69.17,56.9914,1,2,0.6583,1,102,TRUE,10,5,1,2
485,2,66.96,55.1141,1,2,0.7906,1,102,TRUE,10,5,1,2
486,2,63.54,54.863,1,2,0.6382,1,102,TRUE,10,5,1,2
487,1,35.28,49.3591,1,1,3.1638,1,102,TRUE,10,5,1,2
488,2,60.29,57.4888,1,2,0.7702,1,102,TRUE,10,5,1,2
489,1,43.98,60.8063,1,2,0.6743,1,102,TRUE,10,5,0,2
490,2,57.11,44.5503,1,2,1.0831,1,102,TRUE,10,5,1,2
491,1,62.05,77.8706,1,2,0.6702,1,102,TRUE,10,5,0,2
492,2,50.28,39.248,1,2,0.8477,1,102,TRUE,10,5,1,2
493,1,43.61,60.0173,1,1,0.7166,1,102,TRUE,10,5,1,2
494,2,62.84,54.9045,1,2,0.728,1,102,TRUE,10,5,1,2
495,2,59.27,52.7071,1,2,1.3522,1,102,TRUE,10,5,1,2
496,1,64.93,79.678,1,2,0.7448,1,102,TRUE,10,5,0,2
497,2,51.07,37.254,1,2,0.8388,1,102,TRUE,10,5,1,2
498,2,56.14,45.8686,1,2,1.5723,1,102,TRUE,10,5,1,2
499,1,47.33,65.2807,1,1,1.2518,1,102,TRUE,10,5,1,2
500,2,59.06,48.5935,1,2,0.8564,1,102,TRUE,10,5,1,2
501,1,31.98,44.462,1,1,1.2568,1,102,TRUE,11,6,1,3
502,2,59.57,42.0453,1,2,0.7973,1,102,TRUE,11,6,1,3
503,4,162.56,34.7302,2,3,1.8602,1,102,FALSE,11,6,0,3
504,3,139.38,38.4461,2,4,0.4607,1,102,TRUE,11,6,0,3
505,3,139.67,48.3415,2,3,0.5741,1,102,TRUE,11,6,1,3
506,1,51.8,69.5598,1,1,2.054,1,102,FALSE,11,6,1,3
507,4,161.08,69.7263,2,4,0.9937,1,102,FALSE,11,6,1,3
508,3,140.97,31.7029,2,3,0.7285,1,102,TRUE,11,6,1,3
509,3,140.61,58.3427,2,3,0.5059,1,102,TRUE,11,6,1,3
510,3,138.57,85.5241,2,3,0.6451,1,102,TRUE,11,6,1,3
511,1,43.06,53.5981,1,2,1.7379,1,102,FALSE,11,6,0,3
512,2,52.17,34.2479,1,2,0.92,1,102,TRUE,11,6,1,3
513,2,70.9,50.4199,1,2,0.906,1,102,TRUE,11,6,1,3
514,1,47.41,60.2221,1,1,1.6208,1,102,TRUE,11,6,1,3
515,4,158.61,68.4981,2,4,0.9222,1,102,FALSE,11,6,1,3
516,3,140.82,28.9487,2,3,0.6205,1,102,TRUE,11,6,1,3
517,1,44.88,63.6372,1,2,1.0027,1,102,FALSE,11,6,0,3
518,1,28.89,46.0565,1,1,0.7025,1,102,TRUE,11,6,1,3
519,2,70.73,62.4698,1,2,0.9454,1,102,TRUE,11,6,1,3
520,3,138.76,51.6964,2,3,0.6902,1,102,FALSE,11,6,1,3
521,1,37.16,54.0264,1,2,0.6217,1,102,FALSE,11,6,0,3
522,1,52.66,68.0357,1,2,0.7366,1,102,TRUE,11,6,0,3
523,2,71.55,58.3545,1,2,0.7111,1,102,TRUE,11,6,1,3
524,2,43.66,25.1508,1,2,0.9214,1,102,TRUE,11,6,1,3
525,1,48.7,58.0597,1,2,1.0034,1,102,TRUE,11,6,0,3
526,1,42.79,59.2211,1,2,0.7913,1,102,TRUE,11,6,0,3
527,4,164.98,49.2367,2,4,0.8513,1,102,FALSE,11,6,1,3
528,2,67.37,48.246,1,2,0.72,1,102,FALSE,11,6,1,3
529,1,25.18,46.1766,1,1,0.7463,1,102,TRUE,11,6,1,3
530,3,143.08,42.1155,2,3,0.7952,1,102,FALSE,11,6,1,3
531,2,73.26,61.229,1,2,0.866,1,102,FALSE,11,6,1,3
532,4,157.55,69.2825,2,4,0.5502,1,102,FALSE,11,6,1,3
533,3,147.34,52.8242,2,3,0.791,1,102,TRUE,11,6,1,3
534,3,144.58,56.3831,2,3,0.462,1,102,TRUE,11,6,1,3
535,4,163.14,57.3105,2,4,0.5785,1,102,TRUE,11,6,1,3
536,2,42.33,31.7855,1,2,1.514,1,102,FALSE,11,6,1,3
537,4,157.27,55.1617,2,4,0.7637,1,102,FALSE,11,6,1,3
538,4,164.05,47.3739,2,4,0.572,1,102,TRUE,11,6,1,3
539,1,50.61,70.4614,1,1,1.6682,1,102,FALSE,11,6,1,3
540,2,70.58,52.9016,1,2,0.7038,1,102,TRUE,11,6,1,3
541,1,57.05,71.5351,1,1,1.6668,1,102,TRUE,11,6,1,3
542,4,159.53,41.0973,2,4,0.7022,1,102,FALSE,11,6,1,3
543,4,162.5,66.6075,2,4,0.537,1,102,TRUE,11,6,1,3
544,3,141.39,47.2187,2,3,0.8508,1,102,TRUE,11,6,1,3
545,3,137.29,69.9224,2,3,0.5756,1,102,TRUE,11,6,1,3
546,2,42.65,25.7749,1,2,1.0555,1,102,FALSE,11,6,1,3
547,2,51.73,35.3388,1,2,0.516,1,102,TRUE,11,6,1,3
548,4,165.83,54.9215,2,4,0.7359,1,102,FALSE,11,6,1,3
549,1,54.83,67.3295,1,1,1.3039,1,102,FALSE,11,6,1,3
550,1,53.61,70.4623,1,1,1.2744,1,102,TRUE,11,6,1,3
551,3,138.6,37.2869,2,3,0.7933,1,102,FALSE,12,6,1,3
552,4,159.94,46.3794,2,4,0.5043,1,102,TRUE,12,6,1,3
553,4,158.05,41.6317,2,4,0.8513,1,102,TRUE,12,6,1,3
554,3,136.62,39.0217,2,3,0.5841,1,102,TRUE,12,6,1,3
555,1,26.3,41.6454,1,2,1.4877,1,102,FALSE,12,6,0,3
556,4,155.2,51.6798,2,4,0.7672,1,102,FALSE,12,6,1,3
557,1,42.82,58.3399,1,1,1.0873,1,102,FALSE,12,6,1,3
558,3,136.73,56.0203,2,3,0.7067,1,102,FALSE,12,6,1,3
559,4,162.81,50.2545,2,4,0.5816,1,102,TRUE,12,6,1,3
560,2,69.17,56.9914,1,2,0.7893,1,102,FALSE,12,6,1,3
561,4,155.13,42.4782,2,4,0.8048,1,102,FALSE,12,6,1,3
562,1,41.86,53.7319,1,2,0.9636,1,102,FALSE,12,6,0,3
563,2,59.14,39.6095,1,2,0.8006,1,102,TRUE,12,6,1,3
564,4,157.21,47.9077,2,4,0.7197,1,102,FALSE,12,6,1,3
565,4,160.61,70.9509,2,4,0.5618,1,102,TRUE,12,6,1,3
566,1,39.39,47.2078,1,2,0.6982,1,102,FALSE,12,6,0,3
567,2,61.69,42.0533,1,2,0.6423,1,102,TRUE,12,6,1,3
568,4,162.51,57.5891,2,4,0.5433,1,102,FALSE,12,6,1,3
569,1,56.78,72.6646,1,2,0.8643,1,102,FALSE,12,6,0,3
570,2,56.79,46.4723,1,2,0.6655,1,102,TRUE,12,6,1,3
571,3,136.81,45.9589,2,3,0.8536,1,102,FALSE,12,6,1,3
572,1,48.78,64.0946,1,2,0.7947,1,102,FALSE,12,6,0,3
573,2,45.26,35.8385,1,2,0.7425,1,102,TRUE,12,6,1,3
574,3,140.4,43.3124,2,3,0.6555,1,102,FALSE,12,6,1,3
575,3,140.02,72.0072,2,3,0.6283,1,102,TRUE,12,6,1,3
576,2,57.94,46.5245,1,2,0.778,1,102,FALSE,12,6,1,3
577,2,49.74,40.9454,1,2,1.5376,1,102,TRUE,12,6,1,3
578,1,32.96,50.5285,1,1,1.1624,1,102,TRUE,12,6,1,3
579,2,48.1,36.7555,1,2,0.7703,1,102,TRUE,12,6,1,3
580,4,163.07,51.3599,2,4,0.6026,1,102,FALSE,12,6,1,3
581,1,40.42,62.1252,1,1,1.3296,1,102,FALSE,12,6,1,3
582,4,165.25,18.5835,2,4,0.6827,1,102,FALSE,12,6,1,3
583,2,48.31,41.0556,1,2,0.6382,1,102,FALSE,12,6,1,3
584,2,41.22,24.1867,1,2,0.9239,1,102,TRUE,12,6,1,3
585,4,163.08,48.9684,2,4,0.5413,1,102,FALSE,12,6,1,3
586,2,58.2,46.0994,1,2,0.7424,1,102,FALSE,12,6,1,3
587,2,40.9,25.3905,1,2,1.5351,1,102,TRUE,12,6,1,3
588,2,50.36,34.0384,1,2,0.7041,1,102,TRUE,12,6,1,3
589,3,140.54,54.8291,2,3,0.5391,1,102,FALSE,12,6,1,3
590,1,43.15,51.9839,1,1,1.1969,1,102,FALSE,12,6,1,3
591,3,138.57,64.8589,2,3,0.5633,1,102,FALSE,12,6,1,3
592,2,39.92,33.2739,1,2,0.8519,1,102,FALSE,12,6,1,3
593,3,136.49,43.4168,2,3,0.5363,1,102,FALSE,12,6,1,3
594,3,138.62,53.892,2,3,0.5062,1,102,TRUE,12,6,1,3
595,1,50.29,57.7753,1,1,0.9333,1,102,FALSE,12,6,1,3
596,2,45.87,32.9247,1,2,1.2068,1,102,TRUE,12,6,1,3
597,1,62.08,77.808,1,1,0.997,1,102,TRUE,12,6,1,3
598,2,62.01,49.7594,1,2,0.804,1,102,TRUE,12,6,1,3
599,3,140.01,59.7117,2,3,0.6185,1,102,FALSE,12,6,1,3
600,3,144.41,42.1666,2,4,0.4091,1,102,TRUE,12,6,0,3
601,1,34.9,57.7166,1,1,0.7747,1,102,FALSE,13,7,1,3
602,2,39.3,19.6688,1,2,0.6383,1,102,TRUE,13,7,1,3
603,4,154.42,67.4146,2,4,0.8037,1,102,FALSE,13,7,1,3
604,3,141.86,38.4266,2,3,0.5627,1,102,TRUE,13,7,1,3
605,4,161.69,61.6386,2,4,0.5392,1,102,TRUE,13,7,1,3
606,4,160.01,61.6598,2,4,0.6448,1,102,TRUE,13,7,1,3
607,2,43.92,29.4522,1,2,0.6259,1,102,FALSE,13,7,1,3
608,1,41.07,60.531,1,1,0.9836,1,102,TRUE,13,7,1,3
609,1,30.18,53.1012,1,1,0.6787,1,102,TRUE,13,7,1,3
610,3,137.65,37.2736,2,3,0.6585,1,102,FALSE,13,7,1,3
611,3,138.57,53.3218,2,3,0.7347,1,102,TRUE,13,7,1,3
612,4,159.78,70.0803,2,4,0.5363,1,102,TRUE,13,7,1,3
613,4,157.1,45.2073,2,4,0.4659,1,102,TRUE,13,7,1,3
614,1,40.81,58.8824,1,2,0.7665,1,102,FALSE,13,7,0,3
615,3,143.14,17.5412,2,3,0.5956,1,102,FALSE,13,7,1,3
616,2,38.58,27.2605,1,1,1.5628,1,102,FALSE,13,7,0,3
617,1,33.46,45.2113,1,2,0.6553,1,102,TRUE,13,7,0,3
618,3,135.86,26.7617,2,3,0.5368,1,102,FALSE,13,7,1,3
619,3,140.36,53.5176,2,3,0.4264,1,102,TRUE,13,7,1,3
620,4,159.77,41.7433,2,3,0.4163,1,102,TRUE,13,7,0,3
621,2,55.36,37.1783,1,2,0.7478,1,102,FALSE,13,7,1,3
622,2,47.82,47.3857,1,1,1.4207,1,102,TRUE,13,7,0,3
623,1,40.47,53.1423,1,1,1.1034,1,102,TRUE,13,7,1,3
624,2,62.71,54.4399,1,2,0.7622,1,102,TRUE,13,7,1,3
625,2,72.43,60.04,1,2,0.5384,1,102,TRUE,13,7,1,3
626,1,36.38,46.2563,1,2,1.9643,1,102,TRUE,13,7,0,3
627,3,137.74,29.0633,2,3,0.7685,1,102,FALSE,13,7,1,3
628,1,52.95,71.304,1,1,1.9126,1,102,FALSE,13,7,1,3
629,1,50.12,53.8783,1,2,0.7381,1,102,TRUE,13,7,0,3
630,4,164.95,43.6023,2,4,0.7041,1,102,FALSE,13,7,1,3
631,3,138.72,47.4128,2,3,0.7149,1,102,TRUE,13,7,1,3
632,4,162.5,51.8118,2,4,0.6133,1,102,TRUE,13,7,1,3
633,4,158.56,53.0392,2,4,0.5554,1,102,TRUE,13,7,1,3
634,1,44.71,65.8308,1,1,1.7327,1,102,FALSE,13,7,1,3
635,1,23.58,37.7031,1,2,2.2852,1,102,TRUE,13,7,0,3
636,3,142.38,57.4898,2,3,0.7088,1,102,FALSE,13,7,1,3
637,3,138.89,59.141,2,3,0.855,1,102,TRUE,13,7,1,3
638,2,57.99,41.9436,1,2,1.0999,1,102,FALSE,13,7,1,3
639,3,136.7,56.8793,2,3,0.7025,1,102,FALSE,13,7,1,3
640,4,155.97,62.0016,2,4,0.6175,1,102,TRUE,13,7,1,3
641,4,157.36,65.6015,2,4,0.6236,1,102,TRUE,13,7,1,3
642,2,55.91,45.3068,1,2,0.7814,1,102,FALSE,13,7,1,3
643,4,158.62,69.9257,2,4,0.7329,1,102,FALSE,13,7,1,3
644,2,53.92,42.6157,1,2,0.6543,1,102,FALSE,13,7,1,3
645,1,46.82,57.034,1,1,1.0993,1,102,TRUE,13,7,1,3
646,3,140.26,38.9945,2,3,0.7421,1,102,FALSE,13,7,1,3
647,3,136.77,57.7334,2,3,0.7188,1,102,TRUE,13,7,1,3
648,1,35.21,48.4576,1,1,1.3611,1,102,FALSE,13,7,1,3
649,2,63.93,56.556,1,2,0.7528,1,102,TRUE,13,7,1,3
650,2,46.32,31.0904,1,2,1.0657,1,102,TRUE,13,7,1,3
651,1,41.63,52.1208,1,2,1.4071,1,102,TRUE,14,7,0,3
652,2,66.5,49.9604,1,2,0.722,1,102,TRUE,14,7,1,3
653,1,41.42,57.5114,1,1,0.8055,1,102,TRUE,14,7,1,3
654,1,50.37,56.2839,1,1,1.9631,1,102,TRUE,14,7,1,3
655,1,43.12,49.3559,1,2,0.7861,1,102,TRUE,14,7,0,3
656,1,65.29,81.6581,1,2,0.711,1,102,TRUE,14,7,0,3
657,3,141.69,34.9178,2,3,0.8383,1,102,FALSE,14,7,1,3
658,3,144.35,66.5716,2,3,0.5478,1,102,TRUE,14,7,1,3
659,1,47.28,58.408,1,2,0.7489,1,102,FALSE,14,7,0,3
660,3,135.8,49.9308,2,3,0.7309,1,102,FALSE,14,7,1,3
661,4,159.9,57.5433,2,4,0.7643,1,102,TRUE,14,7,1,3
662,4,157.29,43.2013,2,4,0.5407,1,102,TRUE,14,7,1,3
663,1,57.88,65.1439,1,1,2.3343,1,102,FALSE,14,7,1,3
664,4,161.77,27.2415,2,4,0.5429,1,102,FALSE,14,7,1,3
665,1,61.3,72.304,1,1,2.5197,1,102,FALSE,14,7,1,3
666,4,157.74,55.8534,2,3,0.5366,1,102,FALSE,14,7,0,3
667,2,26.4,16.1763,1,1,1.1834,1,102,FALSE,14,7,0,3
668,3,137.75,26.9265,2,3,0.6997,1,102,FALSE,14,7,1,3
669,4,153.7,78.0892,2,4,1.7026,1,102,TRUE,14,7,1,3
670,2,65.78,55.3935,1,2,0.8887,1,102,FALSE,14,7,1,3
671,2,59.24,40.4299,1,2,0.7802,1,102,TRUE,14,7,1,3
672,3,142.28,40.8947,2,3,0.6838,1,102,FALSE,14,7,1,3
673,3,132.06,53.2381,2,3,0.8153,1,102,TRUE,14,7,1,3
674,3,140.73,18.1589,2,3,0.8934,1,102,TRUE,14,7,1,3
675,3,139.09,80.3943,2,3,0.6161,1,102,TRUE,14,7,1,3
676,3,144.89,49.8978,2,4,1.2066,1,102,TRUE,14,7,0,3
677,1,39.61,64.9724,1,1,1.1696,1,102,FALSE,14,7,1,3
678,2,56.57,46.068,1,2,0.7296,1,102,TRUE,14,7,1,3
679,1,45.63,51.4351,1,2,1.723,1,102,TRUE,14,7,0,3
680,4,157.9,69.0949,2,4,0.9688,1,102,FALSE,14,7,1,3
681,2,59.24,41.1206,1,2,1.0249,1,102,FALSE,14,7,1,3
682,2,58.58,47.4366,1,2,0.4863,1,102,TRUE,14,7,1,3
683,3,138.08,43.7703,2,3,1.1061,1,102,FALSE,14,7,1,3
684,3,137.86,32.2813,2,4,0.8687,1,102,TRUE,14,7,0,3
685,1,65.33,71.2844,1,2,0.8219,1,102,FALSE,14,7,0,3
686,1,33.48,51.8051,1,1,0.9926,1,102,TRUE,14,7,1,3
687,3,143.16,61.2747,2,4,0.7032,1,102,FALSE,14,7,0,3
688,1,49.24,62.0892,1,2,0.7758,1,102,FALSE,14,7,0,3
689,4,160.79,57.5303,2,4,0.7798,1,102,FALSE,14,7,1,3
690,3,140.04,44.9607,2,3,0.8595,1,102,TRUE,14,7,1,3
691,2,59.09,42.2948,1,2,0.7435,1,102,FALSE,14,7,1,3
692,4,159.95,59.3734,2,4,0.6805,1,102,FALSE,14,7,1,3
693,3,140.05,74.4122,2,3,0.724,1,102,TRUE,14,7,1,3
694,3,143.31,35.8419,2,4,1.0622,1,102,TRUE,14,7,0,3
695,1,40.93,51.1754,1,1,1.2085,1,102,FALSE,14,7,1,3
696,2,42.95,37.3141,1,2,0.7651,1,102,TRUE,14,7,1,3
697,1,52.27,67.9568,1,1,0.6613,1,102,TRUE,14,7,1,3
698,4,163.13,59.5866,2,4,0.8497,1,102,FALSE,14,7,1,3
699,4,159.58,56.8492,2,4,0.4623,1,102,TRUE,14,7,1,3
700,4,163.76,51.1758,2,4,0.387,1,102,TRUE,14,7,1,3
701,3,142.38,38.7402,2,3,0.6927,1,102,TRUE,15,8,1,3
702,2,85.03,71.3317,1,1,1.5355,1,102,FALSE,15,8,0,3
703,3,141.87,59.0326,2,2,0.6138,1,102,FALSE,15,8,0,3
704,3,137.48,67.8293,2,3,0.7371,1,102,TRUE,15,8,1,3
705,3,139.76,70.2159,2,3,0.5067,1,102,TRUE,15,8,1,3
706,1,69.24,76.5224,1,2,0.7411,1,102,FALSE,15,8,0,3
707,4,164.48,65.0742,2,4,0.6112,1,102,FALSE,15,8,1,3
708,3,138.31,57.391,2,4,0.4735,1,102,TRUE,15,8,0,3
709,1,63.05,83.0385,1,1,0.7622,1,102,FALSE,15,8,1,3
710,3,140.88,43.3533,2,3,0.7305,1,102,FALSE,15,8,1,3
711,4,161.14,57.2723,2,4,0.5561,1,102,TRUE,15,8,1,3
712,3,140.04,39.1366,2,3,0.565,1,102,TRUE,15,8,1,3
713,1,41.04,46.6625,1,1,0.7894,1,102,FALSE,15,8,1,3
714,3,141.22,70.9274,2,3,0.5809,1,102,FALSE,15,8,1,3
715,1,35.29,49.6903,1,1,1.7805,1,102,FALSE,15,8,1,3
716,3,141.9,55.5538,2,3,0.6513,1,102,FALSE,15,8,1,3
717,2,62.84,54.9045,1,2,0.9443,1,102,FALSE,15,8,1,3
718,2,71.34,56.4532,1,2,0.6092,1,102,TRUE,15,8,1,3
719,1,43.61,60.0173,1,1,0.8954,1,102,TRUE,15,8,1,3
720,3,133.79,38.1764,2,3,0.6262,1,102,FALSE,15,8,1,3
721,1,52.11,63.9352,1,1,0.7438,1,102,FALSE,15,8,1,3
722,3,140.43,80.2622,2,3,0.5447,1,102,FALSE,15,8,1,3
723,1,38.18,52.2746,1,1,0.8737,1,102,FALSE,15,8,1,3
724,3,136.31,15.9711,2,3,0.654,1,102,FALSE,15,8,1,3
725,1,32.67,48.2419,1,1,0.6988,1,102,FALSE,15,8,1,3
726,4,163.01,43.9742,2,4,0.6537,1,102,FALSE,15,8,1,3
727,4,159.9,33.2319,2,4,0.4746,1,102,TRUE,15,8,1,3
728,1,41.99,55.152,1,1,0.8705,1,102,FALSE,15,8,1,3
729,4,162.88,50.1335,2,4,0.8185,1,102,FALSE,15,8,1,3
730,3,139.53,61.5364,2,3,0.7207,1,102,TRUE,15,8,1,3
731,4,156.11,43.7605,2,4,0.5148,1,102,TRUE,15,8,1,3
732,3,142.47,46.343,2,3,0.4613,1,102,TRUE,15,8,1,3
733,3,141.6,46.8807,2,4,0.4897,1,102,TRUE,15,8,0,3
734,2,62.3,53.0643,1,2,0.8819,1,102,FALSE,15,8,1,3
735,1,39.72,53.5219,1,2,0.4692,1,102,TRUE,15,8,0,3
736,2,72.32,57.309,1,2,0.6789,1,102,TRUE,15,8,1,3
737,3,142.46,53.7244,2,3,0.4344,1,102,FALSE,15,8,1,3
738,2,46.43,35.241,1,2,1.2884,1,102,FALSE,15,8,1,3
739,3,139.49,32.5537,2,3,0.6193,1,102,FALSE,15,8,1,3
740,2,47.63,41.8302,1,2,1.2098,1,102,FALSE,15,8,1,3
741,4,158.9,62.7789,2,4,0.7516,1,102,FALSE,15,8,1,3
742,1,63.49,80.8734,1,1,1.0085,1,102,FALSE,15,8,1,3
743,4,158.21,41.7331,2,4,1.4791,1,102,FALSE,15,8,1,3
744,3,138.17,80.0525,2,3,0.6742,1,102,TRUE,15,8,1,3
745,2,53.05,41.5715,1,2,1.2938,1,102,FALSE,15,8,1,3
746,1,46.5,55.7953,1,2,0.5522,1,102,TRUE,15,8,0,3
747,3,143.68,24.2725,2,3,0.9744,1,102,FALSE,15,8,1,3
748,3,143.58,79.8951,2,3,0.6777,1,102,TRUE,15,8,1,3
749,2,60.17,44.6186,1,2,0.8493,1,102,FALSE,15,8,1,3
750,2,76.76,57.9073,1,2,0.5982,1,102,TRUE,15,8,1,3
751,3,142.23,54.4259,2,4,1.223,1,102,FALSE,16,8,0,3
752,2,61.39,40.237,1,1,2.8573,1,102,FALSE,16,8,0,3
753,1,30.68,43.4448,1,2,0.7529,1,102,TRUE,16,8,0,3
754,3,134.2,39.4104,2,3,1.7592,1,102,FALSE,16,8,1,3
755,1,52.83,59.6936,1,2,2.3744,1,102,FALSE,16,8,0,3
756,3,146.32,82.8261,2,3,0.9059,1,102,FALSE,16,8,1,3
757,2,59.2,40.9861,1,2,4.9485,1,102,FALSE,16,8,1,3
758,2,58.75,51.8239,1,2,0.4504,1,102,TRUE,16,8,1,3
759,2,51.11,34.233,1,2,0.6235,1,102,TRUE,16,8,1,3
760,2,66.96,55.1141,1,1,0.9019,1,102,TRUE,16,8,0,3
761,2,74.49,54.0217,1,2,0.5255,1,102,TRUE,16,8,1,3
762,3,144.86,66.2777,2,3,0.8395,1,102,FALSE,16,8,1,3
763,4,155.64,43.0604,2,4,0.5968,1,102,TRUE,16,8,1,3
764,1,54.91,68.0724,1,1,0.9719,1,102,FALSE,16,8,1,3
765,3,136.19,48.5403,2,3,0.6597,1,102,FALSE,16,8,1,3
766,4,164.92,67.739,2,4,0.4642,1,102,TRUE,16,8,1,3
767,4,160.72,54.2752,2,4,0.3646,1,102,TRUE,16,8,1,3
768,1,50.07,64.8038,1,2,0.7171,1,102,FALSE,16,8,0,3
769,4,156.65,28.4049,2,4,0.5084,1,102,FALSE,16,8,1,3
770,2,45.73,34.5846,1,1,0.7749,1,102,FALSE,16,8,0,3
771,4,157.65,61.1081,2,4,0.5313,1,102,FALSE,16,8,1,3
772,2,58.27,45.5099,1,2,0.9972,1,102,FALSE,16,8,1,3
773,3,136.14,53.8684,2,4,0.7478,1,102,FALSE,16,8,0,3
774,3,137.19,73.0392,2,3,0.4739,1,102,TRUE,16,8,1,3
775,1,30.38,46.4895,1,1,1.2063,1,102,FALSE,16,8,1,3
776,3,141.15,78.0885,2,3,0.8928,1,102,FALSE,16,8,1,3
777,1,55.76,69.1813,1,1,0.897,1,102,FALSE,16,8,1,3
778,3,143.02,37.7222,2,3,0.5784,1,102,FALSE,16,8,1,3
779,1,56,70.4954,1,1,0.73,1,102,FALSE,16,8,1,3
780,3,137.96,70.8956,2,3,0.6597,1,102,FALSE,16,8,1,3
781,2,48.48,33.8375,1,1,0.7759,1,102,FALSE,16,8,0,3
782,1,44.56,62.3508,1,1,0.6207,1,102,TRUE,16,8,1,3
783,4,160.03,61.5225,2,4,0.7067,1,102,FALSE,16,8,1,3
784,2,71.68,56.6454,1,3,1.0458,1,102,FALSE,16,8,0,3
785,4,155.45,71.8647,2,4,0.6394,1,102,FALSE,16,8,1,3
786,2,52.34,37.5544,1,2,1.0132,1,102,FALSE,16,8,1,3
787,2,63.54,54.863,1,2,0.7071,1,102,TRUE,16,8,1,3
788,3,139.85,58.8253,2,3,0.7982,1,102,FALSE,16,8,1,3
789,2,27.66,20.8166,1,1,1.0289,1,102,FALSE,16,8,0,3
790,1,45.63,60.533,1,2,0.7595,1,102,TRUE,16,8,0,3
791,3,143.56,56.4515,2,3,0.6527,1,102,FALSE,16,8,1,3
792,1,27.34,36.279,1,1,0.8177,1,102,FALSE,16,8,1,3
793,1,32.77,51.7006,1,1,0.6238,1,102,TRUE,16,8,1,3
794,4,159.51,62.8959,2,4,0.7259,1,102,FALSE,16,8,1,3
795,2,56,43.4166,1,1,1.1117,1,102,FALSE,16,8,0,3
796,1,53.97,65.2697,1,2,0.6628,1,102,TRUE,16,8,0,3
797,3,144.98,30.2468,2,3,0.912,1,102,FALSE,16,8,1,3
798,2,47.2,33.3291,1,2,1.1941,1,102,FALSE,16,8,1,3
799,3,138.82,63.0161,2,3,0.8167,1,102,FALSE,16,8,1,3
800,4,162.1,42.1048,2,3,0.367,1,102,TRUE,16,8,0,3
801,3,141.57,52.9807,2,4,1.7438,1,102,TRUE,17,9,0,4
802,3,141.8,56.119,2,3,3.4109,1,102,TRUE,17,9,1,4
803,1,44.11,60.8159,1,2,1.751,1,102,FALSE,17,9,0,4
804,2,71.28,48.5884,1,1,0.7003,1,102,TRUE,17,9,0,4
805,3,141.55,25.3184,2,3,1.0363,1,102,FALSE,17,9,1,4
806,4,156.22,47.6347,2,4,1.3856,1,102,TRUE,17,9,1,4
807,3,138.47,36.5273,2,3,0.8247,1,102,TRUE,17,9,1,4
808,3,142.05,70.1063,2,3,0.766,1,102,TRUE,17,9,1,4
809,3,140.08,36.0444,2,3,0.5664,1,102,TRUE,17,9,1,4
810,2,49.08,41.1032,1,2,1.4388,1,102,FALSE,17,9,1,4
811,1,38.17,52,1,1,0.9238,1,102,TRUE,17,9,1,4
812,3,139.57,69.6677,2,3,0.7978,1,102,FALSE,17,9,1,4
813,2,54.94,36.5409,1,2,1.9006,1,102,FALSE,17,9,1,4
814,2,57.11,44.5503,1,2,0.5186,1,102,TRUE,17,9,1,4
815,3,138.93,79.0204,2,3,1.025,1,102,FALSE,17,9,1,4
816,1,39.2,58.7337,1,1,1.3744,1,102,FALSE,17,9,1,4
817,4,157.26,42.8947,2,4,1.0221,1,102,FALSE,17,9,1,4
818,1,47.3,57.9623,1,2,1.5802,1,102,FALSE,17,9,0,4
819,4,155.61,62.5502,2,4,1.2881,1,102,FALSE,17,9,1,4
820,3,141,76.3672,2,3,0.7232,1,102,TRUE,17,9,1,4
821,2,61.08,44.3351,1,2,3.5335,1,102,FALSE,17,9,1,4
822,4,161.82,50.9232,2,4,1.053,1,102,FALSE,17,9,1,4
823,3,139.46,54.3566,2,4,0.4896,1,102,TRUE,17,9,0,4
824,1,47.03,57.4335,1,1,0.7699,1,102,FALSE,17,9,1,4
825,4,158.9,49.5856,2,3,0.786,1,102,FALSE,17,9,0,4
826,3,142.84,62.4759,2,3,0.7747,1,102,TRUE,17,9,1,4
827,1,42.2,56.2748,1,2,0.9502,1,102,FALSE,17,9,0,4
828,4,155.79,60.4438,2,4,4.948,1,102,FALSE,17,9,1,4
829,2,40.41,22.4533,1,1,1.6978,1,102,FALSE,17,9,0,4
830,3,131.05,60.0022,2,3,1.3851,1,102,FALSE,17,9,1,4
831,4,164.61,59.2724,2,4,1.0481,1,102,TRUE,17,9,1,4
832,3,137.94,33.3014,2,3,0.7886,1,102,TRUE,17,9,1,4
833,4,168.26,59.6153,2,4,0.9961,1,102,TRUE,17,9,1,4
834,4,158.88,51.1773,2,4,1.0829,1,102,TRUE,17,9,1,4
835,2,61.03,38.79,1,2,1.726,1,102,FALSE,17,9,1,4
836,2,59.46,45.2104,1,2,2.7109,1,102,TRUE,17,9,1,4
837,3,141.53,53.9094,2,3,0.8637,1,102,FALSE,17,9,1,4
838,4,162.74,55.7041,2,4,0.6599,1,102,TRUE,17,9,1,4
839,4,159.18,41.2954,2,4,0.6321,1,102,TRUE,17,9,1,4
840,2,52.51,42.1061,1,2,3.5096,1,102,FALSE,17,9,1,4
841,3,143.33,39.0357,2,3,0.8378,1,102,FALSE,17,9,1,4
842,3,141.12,49.2562,2,3,0.7953,1,102,TRUE,17,9,1,4
843,1,35.28,49.3591,1,2,0.866,1,102,FALSE,17,9,0,4
844,4,158.07,53.1583,2,3,1.9393,1,102,FALSE,17,9,0,4
845,4,162.71,56.7381,2,4,0.6083,1,102,TRUE,17,9,1,4
846,1,30.39,40.5124,1,2,0.9428,1,102,FALSE,17,9,0,4
847,3,136.62,72.7398,2,4,1.1564,1,102,FALSE,17,9,0,4
848,4,158.95,15.5629,2,3,0.8017,1,102,TRUE,17,9,0,4
849,2,69.31,61.6089,1,2,1.0136,1,102,FALSE,17,9,1,4
850,1,38.85,51.7517,1,1,1.5236,1,102,TRUE,17,9,1,4
851,4,161.45,62.0483,2,4,1.3568,1,102,FALSE,18,9,1,4
852,1,35.26,44.7157,1,1,1.6694,1,102,FALSE,18,9,1,4
853,2,65.43,50.1249,1,2,2.0888,1,102,TRUE,18,9,1,4
854,1,47.94,64.0403,1,2,0.5555,1,102,TRUE,18,9,0,4
855,3,141.17,33.3386,2,3,0.9528,1,102,FALSE,18,9,1,4
856,4,160.51,41.0317,2,4,0.6177,1,102,TRUE,18,9,1,4
857,1,53.76,63.884,1,2,0.6,1,102,FALSE,18,9,0,4
858,2,75.86,58.7367,1,2,2.9161,1,102,TRUE,18,9,1,4
859,2,58.52,40.0246,1,1,0.6768,1,102,TRUE,18,9,0,4
860,2,50.21,36.0631,1,2,0.9813,1,102,TRUE,18,9,1,4
861,2,67.49,51.7045,1,2,1.9486,1,102,TRUE,18,9,1,4
862,4,161.67,35.5513,2,4,1.8287,1,102,FALSE,18,9,1,4
863,4,155.01,76.6251,2,4,0.5054,1,102,TRUE,18,9,1,4
864,2,57.66,40.2012,1,2,1.8765,1,102,FALSE,18,9,1,4
865,3,143.63,45.5858,2,1,1.3832,1,102,FALSE,18,9,0,4
866,4,160.97,26.1649,2,4,0.7314,1,102,TRUE,18,9,1,4
867,2,65.13,46.5956,1,2,1.4447,1,102,FALSE,18,9,1,4
868,3,141.2,23.8635,2,3,0.9852,1,102,FALSE,18,9,1,4
869,4,161.16,63.5739,2,4,0.6004,1,102,TRUE,18,9,1,4
870,3,143.24,59.9571,2,4,0.7276,1,102,TRUE,18,9,0,4
871,2,55.59,41.6092,1,2,1.5021,1,102,FALSE,18,9,1,4
872,1,56.43,67.3414,1,1,0.6485,1,102,TRUE,18,9,1,4
873,1,33.11,47.1488,1,2,1.2853,1,102,TRUE,18,9,0,4
874,2,68.35,55.5444,1,1,0.7896,1,102,TRUE,18,9,0,4
875,4,160.72,34.7011,2,4,1.2256,1,102,FALSE,18,9,1,4
876,3,137.58,38.3262,2,3,0.7189,1,102,TRUE,18,9,1,4
877,2,53.62,43.4221,1,2,1.3052,1,102,FALSE,18,9,1,4
878,1,47.93,70.0672,1,1,1.7236,1,102,TRUE,18,9,1,4
879,2,74.43,63.0726,1,1,1.381,1,102,TRUE,18,9,0,4
880,2,66.61,50.4249,1,2,1.1453,1,102,TRUE,18,9,1,4
881,2,67.18,48.7084,1,2,0.8258,1,102,TRUE,18,9,1,4
882,2,51.53,32.7494,1,2,0.7434,1,102,TRUE,18,9,1,4
883,3,143.47,57.4393,2,4,1.072,1,102,FALSE,18,9,0,4
884,3,140.64,38.4545,2,3,1.1445,1,102,TRUE,18,9,1,4
885,2,65.84,52.3953,1,2,1.5052,1,102,FALSE,18,9,1,4
886,4,163.53,61.0451,2,4,1.0916,1,102,FALSE,18,9,1,4
887,2,74.61,59.4348,1,1,2.454,1,102,FALSE,18,9,0,4
888,3,139.23,41.1844,2,3,1.6788,1,102,FALSE,18,9,1,4
889,4,157.45,31.695,2,4,0.5936,1,102,TRUE,18,9,1,4
890,1,32.99,47.0211,1,4,6.5047,1,102,FALSE,18,9,0,4
891,4,156.22,43.4107,2,4,0.9427,1,102,FALSE,18,9,1,4
892,2,57.71,41.4789,1,3,1.3832,1,102,FALSE,18,9,0,4
893,2,79.88,58.9603,1,1,2.4994,1,102,TRUE,18,9,0,4
894,2,45.03,33.2449,1,2,1.6261,1,102,TRUE,18,9,1,4
895,1,28.48,48.6025,1,1,0.879,1,102,TRUE,18,9,1,4
896,4,159.04,30.4657,2,4,0.7865,1,102,FALSE,18,9,1,4
897,4,163.3,49.7668,2,4,0.506,1,102,TRUE,18,9,1,4
898,3,140.95,56.8409,2,3,0.5489,1,102,TRUE,18,9,1,4
899,1,57.61,69.7033,1,1,1.486,1,102,FALSE,18,9,1,4
900,3,140.69,66.2516,2,3,0.7531,1,102,FALSE,18,9,1,4
1,4,159.81,36.2333,2,3,0.9515,1,103,TRUE,1,1,0,1
2,3,144.91,77.3409,2,4,0.3775,1,103,TRUE,1,1,0,1
3,3,145.79,75.8869,2,3,1.118,1,103,TRUE,1,1,1,1
4,4,161.82,46.359,2,3,0.48,1,103,TRUE,1,1,0,1
5,3,137.48,67.8293,2,3,0.3683,1,103,TRUE,1,1,1,1
6,4,164.61,59.2724,2,4,0.5847,1,103,TRUE,1,1,1,1
7,4,168.26,59.6153,2,3,0.2804,1,103,TRUE,1,1,0,1
8,4,158.03,75.4286,2,4,0.2167,1,103,TRUE,1,1,1,1
9,4,164.05,47.3739,2,4,0.5835,1,103,TRUE,1,1,1,1
10,4,162.72,43.7372,2,3,0.8391,1,103,TRUE,1,1,0,1
11,3,138.38,51.424,2,3,0.9451,1,103,TRUE,1,1,1,1
12,3,136.34,63.5463,2,3,0.9617,1,103,TRUE,1,1,1,1
13,3,138.08,47.4658,2,3,0.6979,1,103,TRUE,1,1,1,1
14,3,141.04,45.4857,2,3,0.8209,1,103,TRUE,1,1,1,1
15,3,136.62,39.0217,2,4,0.5389,1,103,TRUE,1,1,0,1
16,3,144.81,70.5191,2,3,0.3451,1,103,TRUE,1,1,1,1
17,4,160.79,57.5303,2,4,0.9064,1,103,TRUE,1,1,1,1
18,4,158.62,37.2538,2,3,0.581,1,103,TRUE,1,1,0,1
19,4,160.37,29.7451,2,4,0.4894,1,103,TRUE,1,1,1,1
20,4,156.22,47.5124,2,4,0.3569,1,103,TRUE,1,1,1,1
21,4,156.58,57.9437,2,4,0.4702,1,103,TRUE,1,1,1,1
22,3,138.4,51.0121,2,3,0.5547,1,103,TRUE,1,1,1,1
23,4,156.49,77.0328,2,4,0.7478,1,103,TRUE,1,1,1,1
24,3,138.57,64.8589,2,4,0.4925,1,103,TRUE,1,1,0,1
25,4,160.72,54.2752,2,4,0.6768,1,103,TRUE,1,1,1,1
26,3,141.86,38.4266,2,3,0.4323,1,103,TRUE,1,1,1,1
27,4,158.95,15.5629,2,4,0.8702,1,103,TRUE,1,1,1,1
28,4,157.8,42.5955,2,4,0.5222,1,103,TRUE,1,1,1,1
29,4,158.88,51.1773,2,4,0.4048,1,103,TRUE,1,1,1,1
30,3,132.72,66.2237,2,3,0.548,1,103,TRUE,1,1,1,1
31,3,136.31,15.9711,2,4,0.829,1,103,TRUE,1,1,0,1
32,4,155.84,73.4772,2,3,0.6228,1,103,TRUE,1,1,0,1
33,4,160.65,58.8089,2,4,0.6976,1,103,TRUE,1,1,1,1
34,4,157.1,45.2073,2,4,0.3566,1,103,TRUE,1,1,1,1
35,4,159.58,56.8492,2,4,0.3258,1,103,TRUE,1,1,1,1
36,4,162.67,40.3944,2,4,0.3597,1,103,TRUE,1,1,1,1
37,3,144.47,40.5236,2,4,0.3282,1,103,TRUE,1,1,0,1
38,4,163.26,57.9034,2,4,0.3265,1,103,TRUE,1,1,1,1
39,4,154.86,53.1218,2,4,0.4565,1,103,TRUE,1,1,1,1
40,3,141.67,58.4027,2,3,0.4785,1,103,TRUE,1,1,1,1
41,4,161.77,27.2415,2,4,0.5613,1,103,TRUE,1,1,1,1
42,3,143.56,56.4515,2,4,0.5536,1,103,TRUE,1,1,0,1
43,4,163.3,49.7668,2,4,0.5192,1,103,TRUE,1,1,1,1
44,4,165.75,83.9261,2,4,0.4895,1,103,TRUE,1,1,1,1
45,3,136.24,51.1334,2,3,0.3812,1,103,TRUE,1,1,1,1
46,3,136.48,48.687,2,3,0.581,1,103,TRUE,1,1,1,1
47,4,159.78,70.0803,2,4,0.3968,1,103,TRUE,1,1,1,1
48,3,135.13,20.9297,2,3,0.4761,1,103,TRUE,1,1,1,1
49,4,155.79,60.4438,2,4,0.4958,1,103,TRUE,1,1,1,1
50,3,143.43,51.6252,2,3,0.6348,1,103,TRUE,1,1,1,1
51,3,141,76.3672,2,1,0.534,1,103,TRUE,2,1,0,1
52,3,142.25,31.5593,2,2,0.244,1,103,TRUE,2,1,0,1
53,3,138.57,85.5241,2,2,0.1905,1,103,TRUE,2,1,0,1
54,3,137.94,33.3014,2,1,0.443,1,103,TRUE,2,1,0,1
55,4,160.83,56.7297,2,3,0.2932,1,103,TRUE,2,1,0,1
56,3,140.74,66.2169,2,1,0.2798,1,103,TRUE,2,1,0,1
57,3,142.38,57.4898,2,2,0.2723,1,103,TRUE,2,1,0,1
58,3,145.59,44.6792,2,2,0.2253,1,103,TRUE,2,1,0,1
59,3,139.32,41.2116,2,2,0.4604,1,103,TRUE,2,1,0,1
60,4,157.24,29.9713,2,1,0.222,1,103,TRUE,2,1,0,1
61,4,164.16,73.5159,2,1,0.2091,1,103,TRUE,2,1,0,1
62,3,138.93,79.0204,2,3,1.0526,1,103,TRUE,2,1,1,1
63,4,154.33,57.0606,2,4,0.3134,1,103,TRUE,2,1,1,1
64,3,137.84,48.4341,2,3,0.74,1,103,TRUE,2,1,1,1
65,3,138.21,38.4542,2,4,0.7496,1,103,TRUE,2,1,0,1
66,3,139.82,30.4767,2,3,0.2348,1,103,TRUE,2,1,1,1
67,3,142.22,73.7608,2,4,0.5689,1,103,TRUE,2,1,0,1
68,3,138.44,54.9763,2,3,0.4296,1,103,TRUE,2,1,1,1
69,4,159.33,71.1463,2,4,0.4515,1,103,TRUE,2,1,1,1
70,3,138.4,48.3901,2,3,0.3846,1,103,TRUE,2,1,1,1
71,4,157.29,43.2013,2,4,0.5203,1,103,TRUE,2,1,1,1
72,4,164.98,49.2367,2,4,0.6106,1,103,TRUE,2,1,1,1
73,3,141.57,22.9821,2,3,0.4814,1,103,TRUE,2,1,1,1
74,4,158.6,66.5079,2,4,0.373,1,103,TRUE,2,1,1,1
75,4,157.74,55.8534,2,4,0.4136,1,103,TRUE,2,1,1,1
76,4,159.2,44.3787,2,4,0.436,1,103,TRUE,2,1,1,1
77,4,160.77,34.0234,2,4,0.3617,1,103,TRUE,2,1,1,1
78,4,155.64,43.0604,2,4,0.4903,1,103,TRUE,2,1,1,1
79,4,162.81,50.2545,2,4,0.3021,1,103,TRUE,2,1,1,1
80,4,161.52,37.6462,2,4,0.409,1,103,TRUE,2,1,1,1
81,3,138.82,63.0161,2,3,0.4478,1,103,TRUE,2,1,1,1
82,4,159.89,48.0207,2,4,0.4848,1,103,TRUE,2,1,1,1
83,3,140.26,38.9945,2,3,0.6406,1,103,TRUE,2,1,1,1
84,4,160.57,37.9317,2,4,0.3903,1,103,TRUE,2,1,1,1
85,3,137.02,67.1474,2,3,0.4621,1,103,TRUE,2,1,1,1
86,4,157.75,25.5416,2,4,0.8985,1,103,TRUE,2,1,1,1
87,3,144.58,56.3831,2,4,0.4054,1,103,TRUE,2,1,0,1
88,4,157.38,16.6443,2,4,0.417,1,103,TRUE,2,1,1,1
89,3,138.17,50.0688,2,3,0.3275,1,103,TRUE,2,1,1,1
90,3,140.45,38.711,2,3,0.4653,1,103,TRUE,2,1,1,1
91,3,138.31,57.391,2,3,0.5018,1,103,TRUE,2,1,1,1
92,4,158.97,22.9881,2,4,0.4728,1,103,TRUE,2,1,1,1
93,3,134.85,53.453,2,3,0.4612,1,103,TRUE,2,1,1,1
94,4,162.1,42.1048,2,4,0.4418,1,103,TRUE,2,1,1,1
95,4,155.01,76.6251,2,4,0.4787,1,103,TRUE,2,1,1,1
96,4,157.06,26.4793,2,4,0.3867,1,103,TRUE,2,1,1,1
97,4,167.61,48.3678,2,4,0.4264,1,103,TRUE,2,1,1,1
98,3,141.78,26.945,2,4,0.3362,1,103,TRUE,2,1,0,1
99,3,142.01,63.6032,2,3,0.4627,1,103,TRUE,2,1,1,1
100,3,136.16,38.3877,2,3,0.579,1,103,TRUE,2,1,1,1
101,1,21.3,34.588,1,1,0.907,1,103,FALSE,3,2,1,2
102,1,37.53,55.6349,1,1,0.3738,1,103,TRUE,3,2,1,2
103,1,37.38,56.6051,1,1,0.3816,1,103,TRUE,3,2,1,2
104,1,65.29,81.6581,1,1,0.4534,1,103,TRUE,3,2,1,2
105,1,27.19,37.1601,1,1,0.5626,1,103,TRUE,3,2,1,2
106,1,36.03,53.5328,1,1,0.595,1,103,TRUE,3,2,1,2
107,2,81.46,67.4281,1,1,0.538,1,103,TRUE,3,2,0,2
108,2,38.46,27.3343,1,1,0.4002,1,103,TRUE,3,2,0,2
109,1,48.7,58.0597,1,2,0.3477,1,103,TRUE,3,2,0,2
110,2,61.08,44.3351,1,2,0.6655,1,103,TRUE,3,2,1,2
111,2,37.15,24.716,1,2,0.4537,1,103,TRUE,3,2,1,2
112,2,48.38,39.1257,1,2,0.3629,1,103,TRUE,3,2,1,2
113,2,53.77,40.0301,1,1,0.5791,1,103,TRUE,3,2,0,2
114,1,46.31,53.5411,1,2,0.3194,1,103,TRUE,3,2,0,2
115,2,65.24,51.0587,1,2,0.5744,1,103,TRUE,3,2,1,2
116,1,53.84,76.223,1,2,0.5583,1,103,TRUE,3,2,0,2
117,1,39.43,51.7264,1,2,0.3636,1,103,TRUE,3,2,0,2
118,2,57.15,46.4192,1,2,0.5846,1,103,TRUE,3,2,1,2
119,1,56.53,71.2828,1,1,0.5523,1,103,TRUE,3,2,1,2
120,1,45.08,49.4013,1,2,0.2813,1,103,TRUE,3,2,0,2
121,2,71.73,53.3838,1,2,0.4657,1,103,TRUE,3,2,1,2
122,2,31.17,19.0699,1,1,0.3102,1,103,TRUE,3,2,0,2
123,2,64.46,45.876,1,2,0.1978,1,103,TRUE,3,2,1,2
124,2,31.98,19.3176,1,2,0.3332,1,103,TRUE,3,2,1,2
125,1,62.35,68.6008,1,1,0.6389,1,103,TRUE,3,2,1,2
126,2,76.63,60.8833,1,2,0.9647,1,103,TRUE,3,2,1,2
127,1,43.2,55.7524,1,1,0.6847,1,103,TRUE,3,2,1,2
128,1,65.33,71.2844,1,1,0.5045,1,103,TRUE,3,2,1,2
129,2,50.11,39.842,1,2,0.4754,1,103,TRUE,3,2,1,2
130,1,51.21,56.8799,1,1,0.5434,1,103,TRUE,3,2,1,2
131,1,52.26,61.8207,1,1,0.4723,1,103,TRUE,3,2,1,2
132,2,39.64,26.4324,1,2,0.4287,1,103,TRUE,3,2,1,2
133,2,65.33,52.745,1,1,0.3867,1,103,TRUE,3,2,0,2
134,1,36.06,47.5755,1,2,0.3988,1,103,TRUE,3,2,0,2
135,1,52.86,71.1327,1,2,0.5224,1,103,TRUE,3,2,0,2
136,1,36.65,54.0013,1,1,0.6333,1,103,TRUE,3,2,1,2
137,1,32.95,49.0717,1,1,0.4789,1,103,TRUE,3,2,1,2
138,1,46.15,58.066,1,1,0.6907,1,103,TRUE,3,2,1,2
139,1,57.72,65.7155,1,1,0.5262,1,103,TRUE,3,2,1,2
140,2,49.08,41.1032,1,2,0.728,1,103,TRUE,3,2,1,2
141,1,38.18,52.2746,1,2,0.3856,1,103,TRUE,3,2,0,2
142,2,66.5,51.9588,1,2,0.5018,1,103,TRUE,3,2,1,2
143,2,59.24,40.4299,1,2,0.5049,1,103,TRUE,3,2,1,2
144,1,53.61,70.4623,1,1,0.8121,1,103,TRUE,3,2,1,2
145,1,30.43,47.8179,1,2,0.706,1,103,TRUE,3,2,0,2
146,2,54.9,47.9243,1,1,0.7056,1,103,TRUE,3,2,0,2
147,1,25.02,42.348,1,2,0.6169,1,103,TRUE,3,2,0,2
148,1,29.3,40.4549,1,2,0.3158,1,103,TRUE,3,2,0,2
149,2,49,33.0814,1,1,0.7627,1,103,TRUE,3,2,0,2
150,1,30.39,40.5124,1,1,0.8314,1,103,TRUE,3,2,1,2
151,2,76.76,57.9073,1,1,0.6486,1,103,TRUE,4,2,0,2
152,1,45.67,59.3011,1,2,0.354,1,103,TRUE,4,2,0,2
153,2,46.63,40.3175,1,2,0.4397,1,103,TRUE,4,2,1,2
154,1,33.5,50.1693,1,2,0.3975,1,103,TRUE,4,2,0,2
155,2,66.24,55.8249,1,2,0.5771,1,103,TRUE,4,2,1,2
156,2,44.38,28.1238,1,1,0.2968,1,103,TRUE,4,2,0,2
157,2,72.3,47.6114,1,2,0.4163,1,103,TRUE,4,2,1,2
158,1,23.58,37.7031,1,2,0.391,1,103,TRUE,4,2,0,2
159,2,67.94,51.9665,1,1,0.4272,1,103,TRUE,4,2,0,2
160,2,69.12,54.1516,1,2,0.2302,1,103,TRUE,4,2,1,2
161,1,41.09,64.8833,1,2,0.3641,1,103,TRUE,4,2,0,2
162,1,49.8,69.2946,1,2,0.2651,1,103,TRUE,4,2,0,2
163,1,48.44,61.2359,1,2,0.3862,1,103,TRUE,4,2,0,2
164,2,60.06,38.865,1,1,0.2865,1,103,TRUE,4,2,0,2
165,2,54.19,39.1965,1,1,0.3668,1,103,TRUE,4,2,0,2
166,2,47.82,47.3857,1,2,0.7797,1,103,TRUE,4,2,1,2
167,2,73.66,62.3043,1,1,0.6753,1,103,TRUE,4,2,0,2
168,1,50.06,67.0606,1,2,0.06,1,103,TRUE,4,2,0,2
169,2,37.19,18.7038,1,1,0.3499,1,103,TRUE,4,2,0,2
170,2,41.22,24.1867,1,2,0.3235,1,103,TRUE,4,2,1,2
171,1,37.79,47.7874,1,2,0.622,1,103,TRUE,4,2,0,2
172,1,42.24,52.3392,1,2,0.4089,1,103,TRUE,4,2,0,2
173,1,29.54,37.0951,1,2,0.6285,1,103,TRUE,4,2,0,2
174,2,71.28,48.5884,1,2,0.6786,1,103,TRUE,4,2,1,2
175,2,71.93,57.6288,1,2,0.5942,1,103,TRUE,4,2,1,2
176,2,52.34,37.5544,1,1,0.5373,1,103,TRUE,4,2,0,2
177,1,46.96,63.4907,1,2,0.5594,1,103,TRUE,4,2,0,2
178,2,55.91,45.3068,1,2,0.4929,1,103,TRUE,4,2,1,2
179,2,65.32,51.1645,1,2,0.632,1,103,TRUE,4,2,1,2
180,1,63.61,76.1175,1,2,0.7977,1,103,TRUE,4,2,0,2
181,1,40.32,58.7675,1,1,0.465,1,103,TRUE,4,2,1,2
182,2,64.05,52.4557,1,2,0.6775,1,103,TRUE,4,2,1,2
183,2,46.26,35.729,1,1,0.3451,1,103,TRUE,4,2,0,2
184,2,50.36,34.0384,1,2,0.4067,1,103,TRUE,4,2,1,2
185,1,56,70.4954,1,2,0.3577,1,103,TRUE,4,2,0,2
186,1,34.89,46.7237,1,1,0.8835,1,103,TRUE,4,2,1,2
187,1,55.36,68.3658,1,2,0.5109,1,103,TRUE,4,2,0,2
188,1,20.42,36.5587,1,2,0.4224,1,103,TRUE,4,2,0,2
189,1,52.42,68.5898,1,1,0.3533,1,103,TRUE,4,2,1,2
190,2,55.9,45.6204,1,2,0.6746,1,103,TRUE,4,2,1,2
191,2,58.75,51.8239,1,2,0.8221,1,103,TRUE,4,2,1,2
192,1,42.63,56.0732,1,1,0.6363,1,103,TRUE,4,2,1,2
193,1,31.81,46.119,1,1,0.586,1,103,TRUE,4,2,1,2
194,2,60.59,50.6114,1,2,0.6577,1,103,TRUE,4,2,1,2
195,1,42.88,57.0761,1,1,0.4698,1,103,TRUE,4,2,1,2
196,2,54.45,49.3125,1,2,0.6263,1,103,TRUE,4,2,1,2
197,2,56.14,45.8686,1,2,0.704,1,103,TRUE,4,2,1,2
198,2,60.27,50.9635,1,2,0.5628,1,103,TRUE,4,2,1,2
199,2,53.29,36.6963,1,2,0.4913,1,103,TRUE,4,2,1,2
200,1,47.03,57.4335,1,2,0.3985,1,103,TRUE,4,2,0,2
201,1,43.61,60.0173,1,2,1.135,1,103,TRUE,5,3,0,2
202,2,51.82,41.6118,1,1,0.3486,1,103,TRUE,5,3,0,2
203,2,59.09,42.2948,1,2,0.4022,1,103,TRUE,5,3,1,2
204,1,57.3,58.0281,1,2,0.3535,1,103,TRUE,5,3,0,2
205,2,47.63,41.8302,1,2,0.3831,1,103,TRUE,5,3,1,2
206,1,40.81,58.8824,1,1,0.615,1,103,TRUE,5,3,1,2
207,2,43.92,29.4522,1,2,0.6771,1,103,TRUE,5,3,1,2
208,1,21.6,40.3945,1,2,0.4489,1,103,TRUE,5,3,0,2
209,2,51.63,41.588,1,2,0.3624,1,103,TRUE,5,3,1,2
210,1,36.21,53.3051,1,1,0.403,1,103,TRUE,5,3,1,2
211,2,52.53,39.5201,1,2,0.4981,1,103,TRUE,5,3,1,2
212,2,61.35,40.0877,1,2,0.6133,1,103,TRUE,5,3,1,2
213,1,60.87,79.6909,1,1,0.6355,1,103,TRUE,5,3,1,2
214,2,53.03,45.0345,1,2,0.8092,1,103,TRUE,5,3,1,2
215,1,67.04,83.1983,1,1,0.6074,1,103,TRUE,5,3,1,2
216,1,52.83,59.6936,1,1,0.6304,1,103,TRUE,5,3,1,2
217,1,70.61,75.8167,1,1,0.54,1,103,TRUE,5,3,1,2
218,1,40.08,59.0949,1,2,0.6058,1,103,TRUE,5,3,0,2
219,2,72.37,65.281,1,1,0.6571,1,103,TRUE,5,3,0,2
220,1,47.41,60.2221,1,1,0.8746,1,103,TRUE,5,3,1,2
221,1,37.53,43.4336,1,1,0.694,1,103,TRUE,5,3,1,2
222,2,65.04,53.6688,1,2,0.537,1,103,TRUE,5,3,1,2
223,1,37.76,45.0969,1,2,0.7148,1,103,TRUE,5,3,0,2
224,2,38.19,27.2222,1,1,0.5775,1,103,TRUE,5,3,0,2
225,2,57.6,45.7987,1,1,0.7021,1,103,TRUE,5,3,0,2
226,2,55.45,41.3896,1,2,0.3097,1,103,TRUE,5,3,1,2
227,2,59.13,46.6402,1,2,0.4962,1,103,TRUE,5,3,1,2
228,1,56.43,66.384,1,2,0.3952,1,103,TRUE,5,3,0,2
229,2,51.39,34.8805,1,2,0.3029,1,103,TRUE,5,3,1,2
230,2,65.38,52.676,1,1,0.3302,1,103,TRUE,5,3,0,2
231,2,58.96,47.1875,1,2,0.3365,1,103,TRUE,5,3,1,2
232,2,70.58,52.9016,1,2,0.3703,1,103,TRUE,5,3,1,2
233,2,44.29,26.8748,1,1,0.5068,1,103,TRUE,5,3,0,2
234,1,50.05,61.8338,1,1,0.3944,1,103,TRUE,5,3,1,2
235,1,48.53,60.1227,1,1,0.5294,1,103,TRUE,5,3,1,2
236,2,57.67,40.3939,1,2,0.5232,1,103,TRUE,5,3,1,2
237,1,33.99,45.2383,1,2,0.9336,1,103,TRUE,5,3,0,2
238,2,58.3,41.2841,1,2,0.6115,1,103,TRUE,5,3,1,2
239,2,71.79,56.1119,1,2,0.4897,1,103,TRUE,5,3,1,2
240,1,36.38,46.2563,1,1,0.7898,1,103,TRUE,5,3,1,2
241,2,65.61,48.7518,1,2,0.5011,1,103,TRUE,5,3,1,2
242,2,59.2,40.9861,1,2,0.4162,1,103,TRUE,5,3,1,2
243,1,39.72,53.5219,1,1,0.5746,1,103,TRUE,5,3,1,2
244,1,28.48,48.6025,1,1,0.6783,1,103,TRUE,5,3,1,2
245,2,52.73,43.9275,1,2,0.6979,1,103,TRUE,5,3,1,2
246,2,38.58,27.2605,1,2,0.7809,1,103,TRUE,5,3,1,2
247,1,33.46,45.2113,1,2,0.5004,1,103,TRUE,5,3,0,2
248,1,35.27,48.7687,1,2,0.868,1,103,TRUE,5,3,0,2
249,1,27.03,36.0603,1,1,0.6285,1,103,TRUE,5,3,1,2
250,2,85.03,65.8945,1,2,0.4103,1,103,TRUE,5,3,1,2
251,2,62.42,47.1002,1,2,0.4259,1,103,TRUE,6,3,1,2
252,1,22.2,31.8968,1,2,0.2959,1,103,TRUE,6,3,0,2
253,1,27.34,36.279,1,1,0.5275,1,103,TRUE,6,3,1,2
254,2,41.18,32.85,1,1,0.5294,1,103,TRUE,6,3,0,2
255,1,49.81,63.9288,1,1,0.7675,1,103,TRUE,6,3,1,2
256,2,44.32,33.6858,1,2,0.4158,1,103,TRUE,6,3,1,2
257,1,36.16,60.356,1,1,0.4061,1,103,TRUE,6,3,1,2
258,2,46.24,36.2309,1,1,0.7414,1,103,TRUE,6,3,0,2
259,2,65.25,46.9112,1,2,0.5553,1,103,TRUE,6,3,1,2
260,2,69.09,57.9182,1,1,0.4604,1,103,TRUE,6,3,0,2
261,1,63.05,83.0385,1,2,0.398,1,103,TRUE,6,3,0,2
262,2,58.58,47.4366,1,2,0.5696,1,103,TRUE,6,3,1,2
263,2,69.68,56.3202,1,2,0.442,1,103,TRUE,6,3,1,2
264,1,44.56,62.3508,1,2,0.647,1,103,TRUE,6,3,0,2
265,2,64.29,49.784,1,2,0.4564,1,103,TRUE,6,3,1,2
266,1,44.27,60.4302,1,2,0.4616,1,103,TRUE,6,3,0,2
267,2,46.43,35.241,1,1,0.7112,1,103,TRUE,6,3,0,2
268,2,48.27,43.5102,1,2,0.8067,1,103,TRUE,6,3,1,2
269,1,36.48,53.8282,1,2,0.3893,1,103,TRUE,6,3,0,2
270,1,43.06,53.5981,1,1,0.5297,1,103,TRUE,6,3,1,2
271,2,49.96,38.3514,1,1,0.4435,1,103,TRUE,6,3,0,2
272,1,48.2,59.6551,1,2,0.6217,1,103,TRUE,6,3,0,2
273,1,57.23,75.3521,1,1,0.5364,1,103,TRUE,6,3,1,2
274,1,49.62,62.2038,1,1,0.4023,1,103,TRUE,6,3,1,2
275,1,34.53,50.5285,1,2,0.6014,1,103,TRUE,6,3,0,2
276,1,29.58,43.4423,1,1,0.4929,1,103,TRUE,6,3,1,2
277,2,45.73,34.5846,1,2,0.7518,1,103,TRUE,6,3,1,2
278,1,39.78,56.6358,1,1,0.6249,1,103,TRUE,6,3,1,2
279,1,69.24,76.5224,1,1,0.7584,1,103,TRUE,6,3,1,2
280,1,41.68,58.4161,1,1,0.6787,1,103,TRUE,6,3,1,2
281,2,57.64,39.3685,1,2,0.4902,1,103,TRUE,6,3,1,2
282,1,28.63,41.6027,1,2,0.5494,1,103,TRUE,6,3,0,2
