fixDuration,resp.keys,resp.corr,resp.rt,pracLoop.thisRepN,pracLoop.thisTrialN,pracLoop.thisN,pracLoop.thisIndex,pracLoop.ran,cue,tar,corrAns,targOrientation,participant,session,date,expName,psychopyVersion,OS,frameRate,instResp.keys,instResp.rt,mainLoop.thisRepN,mainLoop.thisTrialN,mainLoop.thisN,mainLoop.thisIndex,mainLoop.ran,blockLoop.thisRepN,blockLoop.thisTrialN,blockLoop.thisN,blockLoop.thisIndex,blockLoop.ran
1.1,right,1,0.949,0,0,0,4,1,stim/lower.png,stim/congLeft.png,right,180,dj,001,2022-01-24_11h46.42.804,ANT,2021.2.3,Win32,58.24111823,,,,,,,,,,,,
1.25,left,1,0.5044,0,1,1,12,1,stim/lower.png,stim/congRight.png,left,180,dj,001,2022-01-24_11h46.42.804,ANT,2021.2.3,Win32,58.24111823,,,,,,,,,,,,
0.65,right,1,0.4582,0,2,2,9,1,stim/both.png,stim/congRight.png,right,0,dj,001,2022-01-24_11h46.42.804,ANT,2021.2.3,Win32,58.24111823,,,,,,,,,,,,
0.6,right,1,0.4354,0,3,3,11,1,stim/blank.png,stim/congRight.png,right,0,dj,001,2022-01-24_11h46.42.804,ANT,2021.2.3,Win32,58.24111823,,,,,,,,,,,,
0.85,left,1,0.2916,0,4,4,0,1,stim/upper.png,stim/congLeft.png,left,0,dj,001,2022-01-24_11h46.42.804,ANT,2021.2.3,Win32,58.24111823,,,,,,,,,,,,
1.45,left,1,0.3924,0,5,5,13,1,stim/both.png,stim/congRight.png,left,180,dj,001,2022-01-24_11h46.42.804,ANT,2021.2.3,Win32,58.24111823,,,,,,,,,,,,
0.7,right,0,0.3197,0,6,6,16,1,stim/upper.png,stim/incongLeft.png,left,0,dj,001,2022-01-24_11h46.42.804,ANT,2021.2.3,Win32,58.24111823,,,,,,,,,,,,
1.2,,0,,0,7,7,17,1,stim/both.png,stim/incongLeft.png,left,0,dj,001,2022-01-24_11h46.42.804,ANT,2021.2.3,Win32,58.24111823,,,,,,,,,,,,
0.7,left,1,0.7909,0,8,8,15,1,stim/blank.png,stim/congRight.png,left,180,dj,001,2022-01-24_11h46.42.804,ANT,2021.2.3,Win32,58.24111823,,,,,,,,,,,,
0.9,right,1,0.4013,0,9,9,10,1,stim/centre.png,stim/congRight.png,right,0,dj,001,2022-01-24_11h46.42.804,ANT,2021.2.3,Win32,58.24111823,,,,,,,,,,,,
1.05,left,0,0.325,0,10,10,20,1,stim/lower.png,stim/incongLeft.png,right,180,dj,001,2022-01-24_11h46.42.804,ANT,2021.2.3,Win32,58.24111823,,,,,,,,,,,,
0.6,left,1,0.5767,0,11,11,1,1,stim/both.png,stim/congLeft.png,left,0,dj,001,2022-01-24_11h46.42.804,ANT,2021.2.3,Win32,58.24111823,,,,,,,,,,,,
0.65,left,1,0.8393,0,12,12,18,1,stim/centre.png,stim/incongLeft.png,left,0,dj,001,2022-01-24_11h46.42.804,ANT,2021.2.3,Win32,58.24111823,,,,,,,,,,,,
0.6,right,1,1.1038,0,13,13,23,1,stim/blank.png,stim/incongLeft.png,right,180,dj,001,2022-01-24_11h46.42.804,ANT,2021.2.3,Win32,58.24111823,,,,,,,,,,,,
1.3,right,1,0.6153,0,14,14,7,1,stim/blank.png,stim/congLeft.png,right,180,dj,001,2022-01-24_11h46.42.804,ANT,2021.2.3,Win32,58.24111823,,,,,,,,,,,,
0.9,left,1,0.4818,0,15,15,3,1,stim/blank.png,stim/congLeft.png,left,0,dj,001,2022-01-24_11h46.42.804,ANT,2021.2.3,Win32,58.24111823,,,,,,,,,,,,
0.7,right,1,0.4788,0,16,16,8,1,stim/upper.png,stim/congRight.png,right,0,dj,001,2022-01-24_11h46.42.804,ANT,2021.2.3,Win32,58.24111823,,,,,,,,,,,,
1.05,left,1,0.3312,0,17,17,14,1,stim/centre.png,stim/congRight.png,left,180,dj,001,2022-01-24_11h46.42.804,ANT,2021.2.3,Win32,58.24111823,,,,,,,,,,,,
1.55,left,0,0.3647,0,18,18,21,1,stim/both.png,stim/incongLeft.png,right,180,dj,001,2022-01-24_11h46.42.804,ANT,2021.2.3,Win32,58.24111823,,,,,,,,,,,,
1,right,1,0.3851,0,19,19,5,1,stim/both.png,stim/congLeft.png,right,180,dj,001,2022-01-24_11h46.42.804,ANT,2021.2.3,Win32,58.24111823,,,,,,,,,,,,
0.6,right,1,0.5446,0,20,20,6,1,stim/centre.png,stim/congLeft.png,right,180,dj,001,2022-01-24_11h46.42.804,ANT,2021.2.3,Win32,58.24111823,,,,,,,,,,,,
1.3,left,0,0.4031,0,21,21,22,1,stim/centre.png,stim/incongLeft.png,right,180,dj,001,2022-01-24_11h46.42.804,ANT,2021.2.3,Win32,58.24111823,,,,,,,,,,,,
1.25,right,0,1.1995,0,22,22,19,1,stim/blank.png,stim/incongLeft.png,left,0,dj,001,2022-01-24_11h46.42.804,ANT,2021.2.3,Win32,58.24111823,,,,,,,,,,,,
1.4,left,1,0.4374,0,23,23,2,1,stim/centre.png,stim/congLeft.png,left,0,dj,001,2022-01-24_11h46.42.804,ANT,2021.2.3,Win32,58.24111823,,,,,,,,,,,,
0.7,right,1,0.5279,,,,,,stim/both.png,stim/congRight.png,right,0,dj,001,2022-01-24_11h46.42.804,ANT,2021.2.3,Win32,58.24111823,space,14.5708,0,0,0,9,1,,,,,
1.15,,0,,,,,,,stim/both.png,stim/incongLeft.png,right,180,dj,001,2022-01-24_11h46.42.804,ANT,2021.2.3,Win32,58.24111823,,,0,1,1,21,1,,,,,
0.8,right,0,0.6235,,,,,,stim/both.png,stim/incongRight.png,left,180,dj,001,2022-01-24_11h46.42.804,ANT,2021.2.3,Win32,58.24111823,,,0,2,2,29,1,,,,,
1.05,right,1,0.6585,,,,,,stim/both.png,stim/incongRight.png,right,0,dj,001,2022-01-24_11h46.42.804,ANT,2021.2.3,Win32,58.24111823,,,0,3,3,25,1,,,,,
1.4,left,1,0.7438,,,,,,stim/upper.png,stim/neutralLeft.png,left,0,dj,001,2022-01-24_11h46.42.804,ANT,2021.2.3,Win32,58.24111823,,,0,4,4,32,1,,,,,
0.45,right,1,0.6144,,,,,,stim/centre.png,stim/neutralRight.png,right,0,dj,001,2022-01-24_11h46.42.804,ANT,2021.2.3,Win32,58.24111823,,,0,5,5,42,1,,,,,
0.75,right,1,0.8659,,,,,,stim/lower.png,stim/neutralLeft.png,right,180,dj,001,2022-01-24_11h46.42.804,ANT,2021.2.3,Win32,58.24111823,,,0,6,6,36,1,,,,,
0.75,left,1,0.5956,,,,,,stim/centre.png,stim/congLeft.png,left,0,dj,001,2022-01-24_11h46.42.804,ANT,2021.2.3,Win32,58.24111823,,,0,7,7,2,1,,,,,
1.3,right,1,0.9319,,,,,,stim/blank.png,stim/incongRight.png,right,0,dj,001,2022-01-24_11h46.42.804,ANT,2021.2.3,Win32,58.24111823,,,0,8,8,27,1,,,,,
1.45,right,0,1.0478,,,,,,stim/blank.png,stim/incongLeft.png,left,0,dj,001,2022-01-24_11h46.42.804,ANT,2021.2.3,Win32,58.24111823,,,0,9,9,19,1,,,,,
0.65,right,1,1.1767,,,,,,stim/blank.png,stim/neutralRight.png,right,0,dj,001,2022-01-24_11h46.42.804,ANT,2021.2.3,Win32,58.24111823,,,0,10,10,43,1,,,,,
0.4,left,1,0.712,,,,,,stim/blank.png,stim/congRight.png,left,180,dj,001,2022-01-24_11h46.42.804,ANT,2021.2.3,Win32,58.24111823,,,0,11,11,15,1,,,,,
1.35,right,1,1.6198,,,,,,stim/blank.png,stim/incongLeft.png,right,180,dj,001,2022-01-24_11h46.42.804,ANT,2021.2.3,Win32,58.24111823,,,0,12,12,23,1,,,,,
1.55,left,1,0.5512,,,,,,stim/both.png,stim/congRight.png,left,180,dj,001,2022-01-24_11h46.42.804,ANT,2021.2.3,Win32,58.24111823,,,0,13,13,13,1,,,,,
1.4,right,1,0.9574,,,,,,stim/blank.png,stim/congRight.png,right,0,dj,001,2022-01-24_11h46.42.804,ANT,2021.2.3,Win32,58.24111823,,,0,14,14,11,1,,,,,
1.45,right,1,0.6559,,,,,,stim/centre.png,stim/incongRight.png,right,0,dj,001,2022-01-24_11h46.42.804,ANT,2021.2.3,Win32,58.24111823,,,0,15,15,26,1,,,,,
1.55,left,1,0.5759,,,,,,stim/both.png,stim/congLeft.png,left,0,dj,001,2022-01-24_11h46.42.804,ANT,2021.2.3,Win32,58.24111823,,,0,16,16,1,1,,,,,
0.55,left,1,0.7339,,,,,,stim/blank.png,stim/neutralLeft.png,left,0,dj,001,2022-01-24_11h46.42.804,ANT,2021.2.3,Win32,58.24111823,,,0,17,17,35,1,,,,,
0.85,left,1,0.6582,,,,,,stim/blank.png,stim/neutralRight.png,left,180,dj,001,2022-01-24_11h46.42.804,ANT,2021.2.3,Win32,58.24111823,,,0,18,18,47,1,,,,,
0.7,left,1,1.0756,,,,,,stim/blank.png,stim/incongRight.png,left,180,dj,001,2022-01-24_11h46.42.804,ANT,2021.2.3,Win32,58.24111823,,,0,19,19,31,1,,,,,
0.95,left,1,0.6084,,,,,,stim/centre.png,stim/neutralLeft.png,left,0,dj,001,2022-01-24_11h46.42.804,ANT,2021.2.3,Win32,58.24111823,,,0,20,20,34,1,,,,,
0.85,left,1,0.5087,,,,,,stim/lower.png,stim/congRight.png,left,180,dj,001,2022-01-24_11h46.42.804,ANT,2021.2.3,Win32,58.24111823,,,0,21,21,12,1,,,,,
1.55,right,1,0.537,,,,,,stim/centre.png,stim/congRight.png,right,0,dj,001,2022-01-24_11h46.42.804,ANT,2021.2.3,Win32,58.24111823,,,0,22,22,10,1,,,,,
1.55,left,0,0.5974,,,,,,stim/centre.png,stim/neutralLeft.png,right,180,dj,001,2022-01-24_11h46.42.804,ANT,2021.2.3,Win32,58.24111823,,,0,23,23,38,1,,,,,
0.6,left,1,0.7412,,,,,,stim/blank.png,stim/congLeft.png,left,0,dj,001,2022-01-24_11h46.42.804,ANT,2021.2.3,Win32,58.24111823,,,0,24,24,3,1,,,,,
0.95,right,1,0.5151,,,,,,stim/blank.png,stim/neutralLeft.png,right,180,dj,001,2022-01-24_11h46.42.804,ANT,2021.2.3,Win32,58.24111823,,,0,25,25,39,1,,,,,
1.3,right,1,0.4259,,,,,,stim/both.png,stim/neutralLeft.png,right,180,dj,001,2022-01-24_11h46.42.804,ANT,2021.2.3,Win32,58.24111823,,,0,26,26,37,1,,,,,
1.5,right,1,0.5252,,,,,,stim/both.png,stim/neutralRight.png,right,0,dj,001,2022-01-24_11h46.42.804,ANT,2021.2.3,Win32,58.24111823,,,0,27,27,41,1,,,,,
0.7,left,1,0.6552,,,,,,stim/lower.png,stim/neutralRight.png,left,180,dj,001,2022-01-24_11h46.42.804,ANT,2021.2.3,Win32,58.24111823,,,0,28,28,44,1,,,,,
1.25,right,1,0.5445,,,,,,stim/blank.png,stim/congLeft.png,right,180,dj,001,2022-01-24_11h46.42.804,ANT,2021.2.3,Win32,58.24111823,,,0,29,29,7,1,,,,,
1.55,left,1,0.8794,,,,,,stim/upper.png,stim/incongLeft.png,left,0,dj,001,2022-01-24_11h46.42.804,ANT,2021.2.3,Win32,58.24111823,,,0,30,30,16,1,,,,,
0.95,left,1,0.6283,,,,,,stim/centre.png,stim/neutralRight.png,left,180,dj,001,2022-01-24_11h46.42.804,ANT,2021.2.3,Win32,58.24111823,,,0,31,31,46,1,,,,,
0.45,right,1,0.7218,,,,,,stim/centre.png,stim/incongLeft.png,right,180,dj,001,2022-01-24_11h46.42.804,ANT,2021.2.3,Win32,58.24111823,,,0,32,32,22,1,,,,,
1.15,right,1,0.6872,,,,,,stim/upper.png,stim/incongRight.png,right,0,dj,001,2022-01-24_11h46.42.804,ANT,2021.2.3,Win32,58.24111823,,,0,33,33,24,1,,,,,
1.35,left,1,0.7689,,,,,,stim/centre.png,stim/incongRight.png,left,180,dj,001,2022-01-24_11h46.42.804,ANT,2021.2.3,Win32,58.24111823,,,0,34,34,30,1,,,,,
0.7,left,1,0.657,,,,,,stim/lower.png,stim/incongRight.png,left,180,dj,001,2022-01-24_11h46.42.804,ANT,2021.2.3,Win32,58.24111823,,,0,35,35,28,1,,,,,
0.65,right,1,0.5486,,,,,,stim/lower.png,stim/congLeft.png,right,180,dj,001,2022-01-24_11h46.42.804,ANT,2021.2.3,Win32,58.24111823,,,0,36,36,4,1,,,,,
0.7,left,1,0.7536,,,,,,stim/centre.png,stim/incongLeft.png,left,0,dj,001,2022-01-24_11h46.42.804,ANT,2021.2.3,Win32,58.24111823,,,0,37,37,18,1,,,,,
1.15,right,1,0.5611,,,,,,stim/upper.png,stim/neutralRight.png,right,0,dj,001,2022-01-24_11h46.42.804,ANT,2021.2.3,Win32,58.24111823,,,0,38,38,40,1,,,,,
0.8,right,1,0.5742,,,,,,stim/upper.png,stim/congRight.png,right,0,dj,001,2022-01-24_11h46.42.804,ANT,2021.2.3,Win32,58.24111823,,,0,39,39,8,1,,,,,
1.15,left,1,0.5501,,,,,,stim/both.png,stim/neutralRight.png,left,180,dj,001,2022-01-24_11h46.42.804,ANT,2021.2.3,Win32,58.24111823,,,0,40,40,45,1,,,,,
1.45,left,1,0.7089,,,,,,stim/both.png,stim/incongLeft.png,left,0,dj,001,2022-01-24_11h46.42.804,ANT,2021.2.3,Win32,58.24111823,,,0,41,41,17,1,,,,,
0.9,right,1,0.6098,,,,,,stim/both.png,stim/congLeft.png,right,180,dj,001,2022-01-24_11h46.42.804,ANT,2021.2.3,Win32,58.24111823,,,0,42,42,5,1,,,,,
0.95,left,1,0.5677,,,,,,stim/centre.png,stim/congRight.png,left,180,dj,001,2022-01-24_11h46.42.804,ANT,2021.2.3,Win32,58.24111823,,,0,43,43,14,1,,,,,
1.35,left,1,0.6484,,,,,,stim/both.png,stim/neutralLeft.png,left,0,dj,001,2022-01-24_11h46.42.804,ANT,2021.2.3,Win32,58.24111823,,,0,44,44,33,1,,,,,
0.4,right,1,0.9168,,,,,,stim/lower.png,stim/incongLeft.png,right,180,dj,001,2022-01-24_11h46.42.804,ANT,2021.2.3,Win32,58.24111823,,,0,45,45,20,1,,,,,
1.1,left,1,0.47,,,,,,stim/upper.png,stim/congLeft.png,left,0,dj,001,2022-01-24_11h46.42.804,ANT,2021.2.3,Win32,58.24111823,,,0,46,46,0,1,,,,,
1.5,right,1,0.6817,,,,,,stim/centre.png,stim/congLeft.png,right,180,dj,001,2022-01-24_11h46.42.804,ANT,2021.2.3,Win32,58.24111823,,,0,47,47,6,1,,,,,
0.5,left,1,0.659,,,,,,stim/blank.png,stim/congRight.png,left,180,dj,001,2022-01-24_11h46.42.804,ANT,2021.2.3,Win32,58.24111823,,,1,0,48,15,1,,,,,
1.05,left,1,0.4245,,,,,,stim/both.png,stim/congRight.png,left,180,dj,001,2022-01-24_11h46.42.804,ANT,2021.2.3,Win32,58.24111823,,,1,1,49,13,1,,,,,
0.4,left,1,0.4273,,,,,,stim/lower.png,stim/congRight.png,left,180,dj,001,2022-01-24_11h46.42.804,ANT,2021.2.3,Win32,58.24111823,,,1,2,50,12,1,,,,,
0.6,right,1,0.5066,,,,,,stim/both.png,stim/congRight.png,right,0,dj,001,2022-01-24_11h46.42.804,ANT,2021.2.3,Win32,58.24111823,,,1,3,51,9,1,,,,,
1.45,left,1,0.5618,,,,,,stim/blank.png,stim/neutralRight.png,left,180,dj,001,2022-01-24_11h46.42.804,ANT,2021.2.3,Win32,58.24111823,,,1,4,52,47,1,,,,,
1.4,left,1,0.7244,,,,,,stim/both.png,stim/neutralRight.png,left,180,dj,001,2022-01-24_11h46.42.804,ANT,2021.2.3,Win32,58.24111823,,,1,5,53,45,1,,,,,
0.6,right,1,0.525,,,,,,stim/both.png,stim/congLeft.png,right,180,dj,001,2022-01-24_11h46.42.804,ANT,2021.2.3,Win32,58.24111823,,,1,6,54,5,1,,,,,
1.1,right,1,0.8278,,,,,,stim/upper.png,stim/incongRight.png,right,0,dj,001,2022-01-24_11h46.42.804,ANT,2021.2.3,Win32,58.24111823,,,1,7,55,24,1,,,,,
0.9,left,1,0.6278,,,,,,stim/both.png,stim/incongRight.png,left,180,dj,001,2022-01-24_11h46.42.804,ANT,2021.2.3,Win32,58.24111823,,,1,8,56,29,1,,,,,
0.55,left,1,0.6654,,,,,,stim/lower.png,stim/incongRight.png,left,180,dj,001,2022-01-24_11h46.42.804,ANT,2021.2.3,Win32,58.24111823,,,1,9,57,28,1,,,,,
0.9,right,1,0.6242,,,,,,stim/both.png,stim/incongLeft.png,right,180,dj,001,2022-01-24_11h46.42.804,ANT,2021.2.3,Win32,58.24111823,,,1,10,58,21,1,,,,,
0.9,right,1,0.6421,,,,,,stim/blank.png,stim/neutralRight.png,right,0,dj,001,2022-01-24_11h46.42.804,ANT,2021.2.3,Win32,58.24111823,,,1,11,59,43,1,,,,,
0.6,left,1,0.4837,,,,,,stim/centre.png,stim/neutralRight.png,left,180,dj,001,2022-01-24_11h46.42.804,ANT,2021.2.3,Win32,58.24111823,,,1,12,60,46,1,,,,,
1.05,right,1,0.5365,,,,,,stim/blank.png,stim/neutralLeft.png,right,180,dj,001,2022-01-24_11h46.42.804,ANT,2021.2.3,Win32,58.24111823,,,1,13,61,39,1,,,,,
0.4,left,0,0.4978,,,,,,stim/centre.png,stim/incongRight.png,right,0,dj,001,2022-01-24_11h46.42.804,ANT,2021.2.3,Win32,58.24111823,,,1,14,62,26,1,,,,,
0.8,right,1,0.5961,,,,,,stim/both.png,stim/incongRight.png,right,0,dj,001,2022-01-24_11h46.42.804,ANT,2021.2.3,Win32,58.24111823,,,1,15,63,25,1,,,,,
0.4,right,1,0.5061,,,,,,stim/upper.png,stim/congRight.png,right,0,dj,001,2022-01-24_11h46.42.804,ANT,2021.2.3,Win32,58.24111823,,,1,16,64,8,1,,,,,
1.05,right,1,0.5018,,,,,,stim/blank.png,stim/congRight.png,right,0,dj,001,2022-01-24_11h46.42.804,ANT,2021.2.3,Win32,58.24111823,,,1,17,65,11,1,,,,,
1.55,right,1,0.7006,,,,,,stim/blank.png,stim/incongLeft.png,right,180,dj,001,2022-01-24_11h46.42.804,ANT,2021.2.3,Win32,58.24111823,,,1,18,66,23,1,,,,,
1,right,1,0.5372,,,,,,stim/centre.png,stim/neutralRight.png,right,0,dj,001,2022-01-24_11h46.42.804,ANT,2021.2.3,Win32,58.24111823,,,1,19,67,42,1,,,,,
1.5,left,1,0.5532,,,,,,stim/upper.png,stim/congLeft.png,left,0,dj,001,2022-01-24_11h46.42.804,ANT,2021.2.3,Win32,58.24111823,,,1,20,68,0,1,,,,,
0.45,left,1,0.8147,,,,,,stim/centre.png,stim/neutralLeft.png,left,0,dj,001,2022-01-24_11h46.42.804,ANT,2021.2.3,Win32,58.24111823,,,1,21,69,34,1,,,,,
0.55,left,1,0.6706,,,,,,stim/both.png,stim/incongLeft.png,left,0,dj,001,2022-01-24_11h46.42.804,ANT,2021.2.3,Win32,58.24111823,,,1,22,70,17,1,,,,,
0.6,left,1,0.6048,,,,,,stim/lower.png,stim/neutralRight.png,left,180,dj,001,2022-01-24_11h46.42.804,ANT,2021.2.3,Win32,58.24111823,,,1,23,71,44,1,,,,,
1.45,right,1,0.6651,,,,,,stim/both.png,stim/neutralRight.png,right,0,dj,001,2022-01-24_11h46.42.804,ANT,2021.2.3,Win32,58.24111823,,,1,24,72,41,1,,,,,
0.45,right,1,0.485,,,,,,stim/centre.png,stim/congLeft.png,right,180,dj,001,2022-01-24_11h46.42.804,ANT,2021.2.3,Win32,58.24111823,,,1,25,73,6,1,,,,,
1.2,right,1,0.4983,,,,,,stim/centre.png,stim/congRight.png,right,0,dj,001,2022-01-24_11h46.42.804,ANT,2021.2.3,Win32,58.24111823,,,1,26,74,10,1,,,,,
0.5,right,1,0.6728,,,,,,stim/blank.png,stim/incongRight.png,right,0,dj,001,2022-01-24_11h46.42.804,ANT,2021.2.3,Win32,58.24111823,,,1,27,75,27,1,,,,,
1.35,left,1,0.5775,,,,,,stim/upper.png,stim/neutralLeft.png,left,0,dj,001,2022-01-24_11h46.42.804,ANT,2021.2.3,Win32,58.24111823,,,1,28,76,32,1,,,,,
0.7,left,1,0.7961,,,,,,stim/blank.png,stim/incongRight.png,left,180,dj,001,2022-01-24_11h46.42.804,ANT,2021.2.3,Win32,58.24111823,,,1,29,77,31,1,,,,,
1.5,right,1,0.776,,,,,,stim/centre.png,stim/incongLeft.png,right,180,dj,001,2022-01-24_11h46.42.804,ANT,2021.2.3,Win32,58.24111823,,,1,30,78,22,1,,,,,
0.4,left,0,0.531,,,,,,stim/centre.png,stim/neutralLeft.png,right,180,dj,001,2022-01-24_11h46.42.804,ANT,2021.2.3,Win32,58.24111823,,,1,31,79,38,1,,,,,
1.5,left,1,0.8344,,,,,,stim/centre.png,stim/incongLeft.png,left,0,dj,001,2022-01-24_11h46.42.804,ANT,2021.2.3,Win32,58.24111823,,,1,32,80,18,1,,,,,
1.25,left,1,0.707,,,,,,stim/blank.png,stim/incongLeft.png,left,0,dj,001,2022-01-24_11h46.42.804,ANT,2021.2.3,Win32,58.24111823,,,1,33,81,19,1,,,,,
1.3,left,1,0.7145,,,,,,stim/blank.png,stim/neutralLeft.png,left,0,dj,001,2022-01-24_11h46.42.804,ANT,2021.2.3,Win32,58.24111823,,,1,34,82,35,1,,,,,
0.45,left,1,0.6439,,,,,,stim/centre.png,stim/incongRight.png,left,180,dj,001,2022-01-24_11h46.42.804,ANT,2021.2.3,Win32,58.24111823,,,1,35,83,30,1,,,,,
0.65,left,1,0.4471,,,,,,stim/blank.png,stim/congLeft.png,left,0,dj,001,2022-01-24_11h46.42.804,ANT,2021.2.3,Win32,58.24111823,,,1,36,84,3,1,,,,,
0.45,right,1,0.5689,,,,,,stim/lower.png,stim/neutralLeft.png,right,180,dj,001,2022-01-24_11h46.42.804,ANT,2021.2.3,Win32,58.24111823,,,1,37,85,36,1,,,,,
1.55,right,1,0.6741,,,,,,stim/upper.png,stim/neutralRight.png,right,0,dj,001,2022-01-24_11h46.42.804,ANT,2021.2.3,Win32,58.24111823,,,1,38,86,40,1,,,,,
1.4,left,1,0.5683,,,,,,stim/centre.png,stim/congLeft.png,left,0,dj,001,2022-01-24_11h46.42.804,ANT,2021.2.3,Win32,58.24111823,,,1,39,87,2,1,,,,,
1.1,left,1,0.5387,,,,,,stim/upper.png,stim/incongLeft.png,left,0,dj,001,2022-01-24_11h46.42.804,ANT,2021.2.3,Win32,58.24111823,,,1,40,88,16,1,,,,,
1.3,left,1,0.6132,,,,,,stim/both.png,stim/neutralLeft.png,left,0,dj,001,2022-01-24_11h46.42.804,ANT,2021.2.3,Win32,58.24111823,,,1,41,89,33,1,,,,,
1.5,right,1,0.53,,,,,,stim/lower.png,stim/congLeft.png,right,180,dj,001,2022-01-24_11h46.42.804,ANT,2021.2.3,Win32,58.24111823,,,1,42,90,4,1,,,,,
0.7,left,1,0.5018,,,,,,stim/both.png,stim/congLeft.png,left,0,dj,001,2022-01-24_11h46.42.804,ANT,2021.2.3,Win32,58.24111823,,,1,43,91,1,1,,,,,
1,right,1,0.8205,,,,,,stim/lower.png,stim/incongLeft.png,right,180,dj,001,2022-01-24_11h46.42.804,ANT,2021.2.3,Win32,58.24111823,,,1,44,92,20,1,,,,,
0.9,left,1,0.758,,,,,,stim/centre.png,stim/congRight.png,left,180,dj,001,2022-01-24_11h46.42.804,ANT,2021.2.3,Win32,58.24111823,,,1,45,93,14,1,,,,,
0.8,left,0,0.4173,,,,,,stim/both.png,stim/neutralLeft.png,right,180,dj,001,2022-01-24_11h46.42.804,ANT,2021.2.3,Win32,58.24111823,,,1,46,94,37,1,,,,,
0.5,right,1,0.6527,,,,,,stim/blank.png,stim/congLeft.png,right,180,dj,001,2022-01-24_11h46.42.804,ANT,2021.2.3,Win32,58.24111823,,,1,47,95,7,1,,,,,
,,,,,,,,,,,,,dj,001,2022-01-24_11h46.42.804,ANT,2021.2.3,Win32,58.24111823,,,,,,,,0,0,0,0,1
0.5,,0,,,,,,,stim/both.png,stim/congRight.png,left,180,dj,001,2022-01-24_11h46.42.804,ANT,2021.2.3,Win32,58.24111823,,,0,0,0,13,1,,,,,
1,,0,,,,,,,stim/both.png,stim/congLeft.png,right,180,dj,001,2022-01-24_11h46.42.804,ANT,2021.2.3,Win32,58.24111823,,,0,1,1,5,1,,,,,
1.15,,0,,,,,,,stim/blank.png,stim/congRight.png,right,0,dj,001,2022-01-24_11h46.42.804,ANT,2021.2.3,Win32,58.24111823,,,0,2,2,11,1,,,,,
