fixDuration,resp.keys,resp.corr,resp.rt,pracLoop.thisRepN,pracLoop.thisTrialN,pracLoop.thisN,pracLoop.thisIndex,pracLoop.ran,pracLoop.order,cue,tar,corrAns,targOrientation,participant,session,date,expName,psychopyVersion,frameRate,instResp.keys,instResp.rt,blockLoop.thisRepN,blockLoop.thisTrialN,blockLoop.thisN,blockLoop.thisIndex,blockLoop.ran,blockLoop.order,mainLoop.thisRepN,mainLoop.thisTrialN,mainLoop.thisN,mainLoop.thisIndex,mainLoop.ran,mainLoop.order
0.85,left,1,1.273999929,1,0,24,14,1,23,stim/centre.png,stim/congRight.png,left,180,lina,001,2022-01-20_22h45.57.624,ANT,3.1.3,60,,,,,,,,,,,,,,
1.35,right,1,0.59100008,1,0,24,10,1,23,stim/centre.png,stim/congRight.png,right,0,lina,001,2022-01-20_22h45.57.624,ANT,3.1.3,60,,,,,,,,,,,,,,
0.7,left,1,0.542000055,1,0,24,15,1,23,stim/blank.png,stim/congRight.png,left,180,lina,001,2022-01-20_22h45.57.624,ANT,3.1.3,60,,,,,,,,,,,,,,
0.4,right,1,0.523999929,1,0,24,6,1,23,stim/centre.png,stim/congLeft.png,right,180,lina,001,2022-01-20_22h45.57.624,ANT,3.1.3,60,,,,,,,,,,,,,,
1.1,left,1,0.59100008,1,0,24,3,1,23,stim/blank.png,stim/congLeft.png,left,0,lina,001,2022-01-20_22h45.57.624,ANT,3.1.3,60,,,,,,,,,,,,,,
0.75,left,1,0.674000025,1,0,24,12,1,23,stim/lower.png,stim/congRight.png,left,180,lina,001,2022-01-20_22h45.57.624,ANT,3.1.3,60,,,,,,,,,,,,,,
0.5,right,1,0.625,1,0,24,22,1,23,stim/centre.png,stim/incongLeft.png,right,180,lina,001,2022-01-20_22h45.57.624,ANT,3.1.3,60,,,,,,,,,,,,,,
0.6,right,1,0.791000128,1,0,24,7,1,23,stim/blank.png,stim/congLeft.png,right,180,lina,001,2022-01-20_22h45.57.624,ANT,3.1.3,60,,,,,,,,,,,,,,
0.9,right,1,0.640000105,1,0,24,9,1,23,stim/both.png,stim/congRight.png,right,0,lina,001,2022-01-20_22h45.57.624,ANT,3.1.3,60,,,,,,,,,,,,,,
1.2,left,0,0.457999945,1,0,24,20,1,23,stim/lower.png,stim/incongLeft.png,right,180,lina,001,2022-01-20_22h45.57.624,ANT,3.1.3,60,,,,,,,,,,,,,,
1.55,left,1,0.608999968,1,0,24,1,1,23,stim/both.png,stim/congLeft.png,left,0,lina,001,2022-01-20_22h45.57.624,ANT,3.1.3,60,,,,,,,,,,,,,,
0.65,left,1,0.625,1,0,24,0,1,23,stim/upper.png,stim/congLeft.png,left,0,lina,001,2022-01-20_22h45.57.624,ANT,3.1.3,60,,,,,,,,,,,,,,
0.95,right,1,0.725000143,1,0,24,21,1,23,stim/both.png,stim/incongLeft.png,right,180,lina,001,2022-01-20_22h45.57.624,ANT,3.1.3,60,,,,,,,,,,,,,,
1.55,left,1,0.625,1,0,24,13,1,23,stim/both.png,stim/congRight.png,left,180,lina,001,2022-01-20_22h45.57.624,ANT,3.1.3,60,,,,,,,,,,,,,,
1.55,left,1,0.575000048,1,0,24,2,1,23,stim/centre.png,stim/congLeft.png,left,0,lina,001,2022-01-20_22h45.57.624,ANT,3.1.3,60,,,,,,,,,,,,,,
0.7,left,1,0.725000143,1,0,24,18,1,23,stim/centre.png,stim/incongLeft.png,left,0,lina,001,2022-01-20_22h45.57.624,ANT,3.1.3,60,,,,,,,,,,,,,,
0.85,right,1,0.558000088,1,0,24,5,1,23,stim/both.png,stim/congLeft.png,right,180,lina,001,2022-01-20_22h45.57.624,ANT,3.1.3,60,,,,,,,,,,,,,,
1.4,left,1,0.657999992,1,0,24,17,1,23,stim/both.png,stim/incongLeft.png,left,0,lina,001,2022-01-20_22h45.57.624,ANT,3.1.3,60,,,,,,,,,,,,,,
0.75,left,1,0.573999882,1,0,24,19,1,23,stim/blank.png,stim/incongLeft.png,left,0,lina,001,2022-01-20_22h45.57.624,ANT,3.1.3,60,,,,,,,,,,,,,,
1.25,right,1,0.676000118,1,0,24,11,1,23,stim/blank.png,stim/congRight.png,right,0,lina,001,2022-01-20_22h45.57.624,ANT,3.1.3,60,,,,,,,,,,,,,,
0.65,right,1,0.524999857,1,0,24,4,1,23,stim/lower.png,stim/congLeft.png,right,180,lina,001,2022-01-20_22h45.57.624,ANT,3.1.3,60,,,,,,,,,,,,,,
1.1,left,1,0.475000143,1,0,24,16,1,23,stim/upper.png,stim/incongLeft.png,left,0,lina,001,2022-01-20_22h45.57.624,ANT,3.1.3,60,,,,,,,,,,,,,,
1.25,right,1,0.492000103,1,0,24,8,1,23,stim/upper.png,stim/congRight.png,right,0,lina,001,2022-01-20_22h45.57.624,ANT,3.1.3,60,,,,,,,,,,,,,,
1.25,right,1,0.757999897,1,0,24,23,1,23,stim/blank.png,stim/incongLeft.png,right,180,lina,001,2022-01-20_22h45.57.624,ANT,3.1.3,60,,,,,,,,,,,,,,
1.5,right,1,0.526000023,,,,,,,stim/both.png,stim/neutralLeft.png,right,180,lina,001,2022-01-20_22h45.57.624,ANT,3.1.3,60,space,25.03800011,3,0,3,0,1,2,2,0,96,37,1,95
0.75,right,1,0.593999863,,,,,,,stim/upper.png,stim/congRight.png,right,0,lina,001,2022-01-20_22h45.57.624,ANT,3.1.3,60,,,3,0,3,0,1,2,2,0,96,8,1,95
0.45,left,1,0.475000143,,,,,,,stim/both.png,stim/congRight.png,left,180,lina,001,2022-01-20_22h45.57.624,ANT,3.1.3,60,,,3,0,3,0,1,2,2,0,96,13,1,95
1.1,right,1,0.608999968,,,,,,,stim/blank.png,stim/incongRight.png,right,0,lina,001,2022-01-20_22h45.57.624,ANT,3.1.3,60,,,3,0,3,0,1,2,2,0,96,27,1,95
0.65,right,1,0.777000189,,,,,,,stim/blank.png,stim/incongLeft.png,right,180,lina,001,2022-01-20_22h45.57.624,ANT,3.1.3,60,,,3,0,3,0,1,2,2,0,96,23,1,95
1.45,right,1,0.573999882,,,,,,,stim/upper.png,stim/neutralRight.png,right,0,lina,001,2022-01-20_22h45.57.624,ANT,3.1.3,60,,,3,0,3,0,1,2,2,0,96,40,1,95
1,right,1,0.742000103,,,,,,,stim/blank.png,stim/congRight.png,right,0,lina,001,2022-01-20_22h45.57.624,ANT,3.1.3,60,,,3,0,3,0,1,2,2,0,96,11,1,95
0.6,,0,,,,,,,,stim/lower.png,stim/incongLeft.png,right,180,lina,001,2022-01-20_22h45.57.624,ANT,3.1.3,60,,,3,0,3,0,1,2,2,0,96,20,1,95
1.5,,0,,,,,,,,stim/centre.png,stim/incongRight.png,right,0,lina,001,2022-01-20_22h45.57.624,ANT,3.1.3,60,,,3,0,3,0,1,2,2,0,96,26,1,95
0.9,left,1,0.508999825,,,,,,,stim/upper.png,stim/congLeft.png,left,0,lina,001,2022-01-20_22h45.57.624,ANT,3.1.3,60,,,3,0,3,0,1,2,2,0,96,0,1,95
0.75,left,1,0.741999865,,,,,,,stim/blank.png,stim/neutralRight.png,left,180,lina,001,2022-01-20_22h45.57.624,ANT,3.1.3,60,,,3,0,3,0,1,2,2,0,96,47,1,95
1.1,right,1,0.625,,,,,,,stim/centre.png,stim/incongLeft.png,right,180,lina,001,2022-01-20_22h45.57.624,ANT,3.1.3,60,,,3,0,3,0,1,2,2,0,96,22,1,95
1.35,left,1,0.657999992,,,,,,,stim/blank.png,stim/incongRight.png,left,180,lina,001,2022-01-20_22h45.57.624,ANT,3.1.3,60,,,3,0,3,0,1,2,2,0,96,31,1,95
0.4,left,1,0.574999809,,,,,,,stim/both.png,stim/congLeft.png,left,0,lina,001,2022-01-20_22h45.57.624,ANT,3.1.3,60,,,3,0,3,0,1,2,2,0,96,1,1,95
1.1,right,1,0.55700016,,,,,,,stim/centre.png,stim/neutralRight.png,right,0,lina,001,2022-01-20_22h45.57.624,ANT,3.1.3,60,,,3,0,3,0,1,2,2,0,96,42,1,95
1.4,left,1,0.540999889,,,,,,,stim/blank.png,stim/neutralLeft.png,left,0,lina,001,2022-01-20_22h45.57.624,ANT,3.1.3,60,,,3,0,3,0,1,2,2,0,96,35,1,95
0.65,left,1,0.642000198,,,,,,,stim/centre.png,stim/neutralRight.png,left,180,lina,001,2022-01-20_22h45.57.624,ANT,3.1.3,60,,,3,0,3,0,1,2,2,0,96,46,1,95
1.1,left,1,0.657999992,,,,,,,stim/blank.png,stim/congLeft.png,left,0,lina,001,2022-01-20_22h45.57.624,ANT,3.1.3,60,,,3,0,3,0,1,2,2,0,96,3,1,95
0.4,left,1,0.608999968,,,,,,,stim/centre.png,stim/incongLeft.png,left,0,lina,001,2022-01-20_22h45.57.624,ANT,3.1.3,60,,,3,0,3,0,1,2,2,0,96,18,1,95
1.1,left,1,0.559999943,,,,,,,stim/lower.png,stim/neutralRight.png,left,180,lina,001,2022-01-20_22h45.57.624,ANT,3.1.3,60,,,3,0,3,0,1,2,2,0,96,44,1,95
1.45,left,1,0.858999968,,,,,,,stim/both.png,stim/incongLeft.png,left,0,lina,001,2022-01-20_22h45.57.624,ANT,3.1.3,60,,,3,0,3,0,1,2,2,0,96,17,1,95
0.9,right,1,0.625,,,,,,,stim/blank.png,stim/congLeft.png,right,180,lina,001,2022-01-20_22h45.57.624,ANT,3.1.3,60,,,3,0,3,0,1,2,2,0,96,7,1,95
1.05,right,1,0.507999897,,,,,,,stim/blank.png,stim/neutralRight.png,right,0,lina,001,2022-01-20_22h45.57.624,ANT,3.1.3,60,,,3,0,3,0,1,2,2,0,96,43,1,95
0.75,right,1,0.458999872,,,,,,,stim/both.png,stim/neutralRight.png,right,0,lina,001,2022-01-20_22h45.57.624,ANT,3.1.3,60,,,3,0,3,0,1,2,2,0,96,41,1,95
0.6,left,1,0.474999905,,,,,,,stim/upper.png,stim/incongLeft.png,left,0,lina,001,2022-01-20_22h45.57.624,ANT,3.1.3,60,,,3,0,3,0,1,2,2,0,96,16,1,95
1,right,1,0.559000015,,,,,,,stim/lower.png,stim/neutralLeft.png,right,180,lina,001,2022-01-20_22h45.57.624,ANT,3.1.3,60,,,3,0,3,0,1,2,2,0,96,36,1,95
0.4,right,0,0.441999912,,,,,,,stim/lower.png,stim/incongRight.png,left,180,lina,001,2022-01-20_22h45.57.624,ANT,3.1.3,60,,,3,0,3,0,1,2,2,0,96,28,1,95
1.1,left,1,0.625999928,,,,,,,stim/lower.png,stim/congRight.png,left,180,lina,001,2022-01-20_22h45.57.624,ANT,3.1.3,60,,,3,0,3,0,1,2,2,0,96,12,1,95
1.35,right,1,0.508000135,,,,,,,stim/both.png,stim/congLeft.png,right,180,lina,001,2022-01-20_22h45.57.624,ANT,3.1.3,60,,,3,0,3,0,1,2,2,0,96,5,1,95
0.95,left,1,0.523999929,,,,,,,stim/centre.png,stim/congLeft.png,left,0,lina,001,2022-01-20_22h45.57.624,ANT,3.1.3,60,,,3,0,3,0,1,2,2,0,96,2,1,95
1.3,left,1,0.57400012,,,,,,,stim/both.png,stim/incongRight.png,left,180,lina,001,2022-01-20_22h45.57.624,ANT,3.1.3,60,,,3,0,3,0,1,2,2,0,96,29,1,95
1.25,right,1,0.64199996,,,,,,,stim/both.png,stim/incongRight.png,right,0,lina,001,2022-01-20_22h45.57.624,ANT,3.1.3,60,,,3,0,3,0,1,2,2,0,96,25,1,95
1.05,left,1,0.490999937,,,,,,,stim/upper.png,stim/neutralLeft.png,left,0,lina,001,2022-01-20_22h45.57.624,ANT,3.1.3,60,,,3,0,3,0,1,2,2,0,96,32,1,95
0.55,left,1,0.490999937,,,,,,,stim/centre.png,stim/congRight.png,left,180,lina,001,2022-01-20_22h45.57.624,ANT,3.1.3,60,,,3,0,3,0,1,2,2,0,96,14,1,95
0.6,right,1,0.508000135,,,,,,,stim/lower.png,stim/congLeft.png,right,180,lina,001,2022-01-20_22h45.57.624,ANT,3.1.3,60,,,3,0,3,0,1,2,2,0,96,4,1,95
1.45,right,1,0.476000071,,,,,,,stim/both.png,stim/congRight.png,right,0,lina,001,2022-01-20_22h45.57.624,ANT,3.1.3,60,,,3,0,3,0,1,2,2,0,96,9,1,95
0.65,left,1,0.491999865,,,,,,,stim/centre.png,stim/neutralLeft.png,left,0,lina,001,2022-01-20_22h45.57.624,ANT,3.1.3,60,,,3,0,3,0,1,2,2,0,96,34,1,95
1.15,right,0,0.457999945,,,,,,,stim/centre.png,stim/incongRight.png,left,180,lina,001,2022-01-20_22h45.57.624,ANT,3.1.3,60,,,3,0,3,0,1,2,2,0,96,30,1,95
1.05,left,1,0.40899992,,,,,,,stim/both.png,stim/neutralLeft.png,left,0,lina,001,2022-01-20_22h45.57.624,ANT,3.1.3,60,,,3,0,3,0,1,2,2,0,96,33,1,95
1.1,right,1,0.442000151,,,,,,,stim/blank.png,stim/neutralLeft.png,right,180,lina,001,2022-01-20_22h45.57.624,ANT,3.1.3,60,,,3,0,3,0,1,2,2,0,96,39,1,95
1.45,right,1,1.141000032,,,,,,,stim/both.png,stim/incongLeft.png,right,180,lina,001,2022-01-20_22h45.57.624,ANT,3.1.3,60,,,3,0,3,0,1,2,2,0,96,21,1,95
1.1,left,1,0.490999937,,,,,,,stim/both.png,stim/neutralRight.png,left,180,lina,001,2022-01-20_22h45.57.624,ANT,3.1.3,60,,,3,0,3,0,1,2,2,0,96,45,1,95
1.1,left,1,0.559000015,,,,,,,stim/blank.png,stim/incongLeft.png,left,0,lina,001,2022-01-20_22h45.57.624,ANT,3.1.3,60,,,3,0,3,0,1,2,2,0,96,19,1,95
1.1,left,0,0.207999945,,,,,,,stim/centre.png,stim/neutralLeft.png,right,180,lina,001,2022-01-20_22h45.57.624,ANT,3.1.3,60,,,3,0,3,0,1,2,2,0,96,38,1,95
0.55,left,1,0.025000095,,,,,,,stim/blank.png,stim/congRight.png,left,180,lina,001,2022-01-20_22h45.57.624,ANT,3.1.3,60,,,3,0,3,0,1,2,2,0,96,15,1,95
1.45,left,0,0.10800004,,,,,,,stim/upper.png,stim/incongRight.png,right,0,lina,001,2022-01-20_22h45.57.624,ANT,3.1.3,60,,,3,0,3,0,1,2,2,0,96,24,1,95
1.5,left,0,0.07400012,,,,,,,stim/centre.png,stim/congRight.png,right,0,lina,001,2022-01-20_22h45.57.624,ANT,3.1.3,60,,,3,0,3,0,1,2,2,0,96,10,1,95
1.05,left,0,0.124000072,,,,,,,stim/centre.png,stim/congLeft.png,right,180,lina,001,2022-01-20_22h45.57.624,ANT,3.1.3,60,,,3,0,3,0,1,2,2,0,96,6,1,95
1.05,left,1,0.008000135,,,,,,,stim/both.png,stim/congRight.png,left,180,lina,001,2022-01-20_22h45.57.624,ANT,3.1.3,60,,,3,0,3,0,1,2,2,0,96,13,1,95
0.4,right,1,0.025000095,,,,,,,stim/centre.png,stim/neutralRight.png,right,0,lina,001,2022-01-20_22h45.57.624,ANT,3.1.3,60,,,3,0,3,0,1,2,2,0,96,42,1,95
0.85,right,0,0.026000023,,,,,,,stim/blank.png,stim/congRight.png,left,180,lina,001,2022-01-20_22h45.57.624,ANT,3.1.3,60,,,3,0,3,0,1,2,2,0,96,15,1,95
1.35,left,0,0.073999882,,,,,,,stim/blank.png,stim/congLeft.png,right,180,lina,001,2022-01-20_22h45.57.624,ANT,3.1.3,60,,,3,0,3,0,1,2,2,0,96,7,1,95
1.1,left,1,0.207999945,,,,,,,stim/blank.png,stim/congLeft.png,left,0,lina,001,2022-01-20_22h45.57.624,ANT,3.1.3,60,,,3,0,3,0,1,2,2,0,96,3,1,95
1.35,left,1,0.10800004,,,,,,,stim/centre.png,stim/congRight.png,left,180,lina,001,2022-01-20_22h45.57.624,ANT,3.1.3,60,,,3,0,3,0,1,2,2,0,96,14,1,95
0.75,right,1,0.174999952,,,,,,,stim/both.png,stim/neutralRight.png,right,0,lina,001,2022-01-20_22h45.57.624,ANT,3.1.3,60,,,3,0,3,0,1,2,2,0,96,41,1,95
1.2,right,1,0.075000048,,,,,,,stim/centre.png,stim/congRight.png,right,0,lina,001,2022-01-20_22h45.57.624,ANT,3.1.3,60,,,3,0,3,0,1,2,2,0,96,10,1,95
1.05,left,0,0.10800004,,,,,,,stim/upper.png,stim/incongRight.png,right,0,lina,001,2022-01-20_22h45.57.624,ANT,3.1.3,60,,,3,0,3,0,1,2,2,0,96,24,1,95
1.15,right,0,0.092000008,,,,,,,stim/centre.png,stim/neutralLeft.png,left,0,lina,001,2022-01-20_22h45.57.624,ANT,3.1.3,60,,,3,0,3,0,1,2,2,0,96,34,1,95
1.1,left,1,0.040999889,,,,,,,stim/blank.png,stim/neutralLeft.png,left,0,lina,001,2022-01-20_22h45.57.624,ANT,3.1.3,60,,,3,0,3,0,1,2,2,0,96,35,1,95
0.55,right,0,0.025000095,,,,,,,stim/upper.png,stim/neutralLeft.png,left,0,lina,001,2022-01-20_22h45.57.624,ANT,3.1.3,60,,,3,0,3,0,1,2,2,0,96,32,1,95
0.6,right,0,0.108999968,,,,,,,stim/both.png,stim/incongRight.png,left,180,lina,001,2022-01-20_22h45.57.624,ANT,3.1.3,60,,,3,0,3,0,1,2,2,0,96,29,1,95
1.15,left,1,0.525000095,,,,,,,stim/both.png,stim/neutralLeft.png,left,0,lina,001,2022-01-20_22h45.57.624,ANT,3.1.3,60,,,3,0,3,0,1,2,2,0,96,33,1,95
0.95,right,0,0.125,,,,,,,stim/centre.png,stim/congLeft.png,left,0,lina,001,2022-01-20_22h45.57.624,ANT,3.1.3,60,,,3,0,3,0,1,2,2,0,96,2,1,95
0.4,left,0,0.108999968,,,,,,,stim/both.png,stim/incongRight.png,right,0,lina,001,2022-01-20_22h45.57.624,ANT,3.1.3,60,,,3,0,3,0,1,2,2,0,96,25,1,95
0.65,left,0,0.092000008,,,,,,,stim/blank.png,stim/congRight.png,right,0,lina,001,2022-01-20_22h45.57.624,ANT,3.1.3,60,,,3,0,3,0,1,2,2,0,96,11,1,95
1,right,1,0.09100008,,,,,,,stim/centre.png,stim/congLeft.png,right,180,lina,001,2022-01-20_22h45.57.624,ANT,3.1.3,60,,,3,0,3,0,1,2,2,0,96,6,1,95
0.45,left,0,0.474999905,,,,,,,stim/upper.png,stim/congRight.png,right,0,lina,001,2022-01-20_22h45.57.624,ANT,3.1.3,60,,,3,0,3,0,1,2,2,0,96,8,1,95
1.3,right,0,0.007999897,,,,,,,stim/centre.png,stim/incongLeft.png,left,0,lina,001,2022-01-20_22h45.57.624,ANT,3.1.3,60,,,3,0,3,0,1,2,2,0,96,18,1,95
1.25,,0,,,,,,,,stim/centre.png,stim/incongLeft.png,right,180,lina,001,2022-01-20_22h45.57.624,ANT,3.1.3,60,,,3,0,3,0,1,2,2,0,96,22,1,95
0.4,,0,,,,,,,,stim/both.png,stim/neutralRight.png,left,180,lina,001,2022-01-20_22h45.57.624,ANT,3.1.3,60,,,3,0,3,0,1,2,2,0,96,45,1,95
0.95,right,1,1.290999889,,,,,,,stim/lower.png,stim/neutralLeft.png,right,180,lina,001,2022-01-20_22h45.57.624,ANT,3.1.3,60,,,3,0,3,0,1,2,2,0,96,36,1,95
1.55,,0,,,,,,,,stim/lower.png,stim/neutralRight.png,left,180,lina,001,2022-01-20_22h45.57.624,ANT,3.1.3,60,,,3,0,3,0,1,2,2,0,96,44,1,95
1.35,,0,,,,,,,,stim/blank.png,stim/incongRight.png,left,180,lina,001,2022-01-20_22h45.57.624,ANT,3.1.3,60,,,3,0,3,0,1,2,2,0,96,31,1,95
