fixDuration,resp.keys,resp.corr,pracLoop.thisRepN,pracLoop.thisTrialN,pracLoop.thisN,pracLoop.thisIndex,pracLoop.ran,cue,tar,corrAns,targOrientation,participant,session,date,expName,psychopyVersion,OS,frameRate,resp.rt,instResp.keys,instResp.rt,mainLoop.thisRepN,mainLoop.thisTrialN,mainLoop.thisN,mainLoop.thisIndex,mainLoop.ran,blockLoop.thisRepN,blockLoop.thisTrialN,blockLoop.thisN,blockLoop.thisIndex,blockLoop.ran
0.75,,0,0,0,0,23,1,stim/blank.png,stim/incongLeft.png,right,180,,001,2022-01-27_19h57.22.111,ANT,2021.2.3,Linux x86_64,59.99880002,,,,,,,,,,,,,
1.15,left,1,0,1,1,16,1,stim/upper.png,stim/incongLeft.png,left,0,,001,2022-01-27_19h57.22.111,ANT,2021.2.3,Linux x86_64,59.99880002,1.4522,,,,,,,,,,,,
1.1,right,1,0,2,2,10,1,stim/centre.png,stim/congRight.png,right,0,,001,2022-01-27_19h57.22.111,ANT,2021.2.3,Linux x86_64,59.99880002,0.8514,,,,,,,,,,,,
0.7,right,1,0,3,3,11,1,stim/blank.png,stim/congRight.png,right,0,,001,2022-01-27_19h57.22.111,ANT,2021.2.3,Linux x86_64,59.99880002,0.654,,,,,,,,,,,,
1.3,left,1,0,4,4,19,1,stim/blank.png,stim/incongLeft.png,left,0,,001,2022-01-27_19h57.22.111,ANT,2021.2.3,Linux x86_64,59.99880002,0.9517,,,,,,,,,,,,
0.55,left,1,0,5,5,13,1,stim/both.png,stim/congRight.png,left,180,,001,2022-01-27_19h57.22.111,ANT,2021.2.3,Linux x86_64,59.99880002,0.7826,,,,,,,,,,,,
0.85,left,1,0,6,6,2,1,stim/centre.png,stim/congLeft.png,left,0,,001,2022-01-27_19h57.22.111,ANT,2021.2.3,Linux x86_64,59.99880002,0.5994,,,,,,,,,,,,
1.5,right,1,0,7,7,9,1,stim/both.png,stim/congRight.png,right,0,,001,2022-01-27_19h57.22.111,ANT,2021.2.3,Linux x86_64,59.99880002,0.634,,,,,,,,,,,,
0.9,left,1,0,8,8,1,1,stim/both.png,stim/congLeft.png,left,0,,001,2022-01-27_19h57.22.111,ANT,2021.2.3,Linux x86_64,59.99880002,0.4678,,,,,,,,,,,,
0.5,left,1,0,9,9,0,1,stim/upper.png,stim/congLeft.png,left,0,,001,2022-01-27_19h57.22.111,ANT,2021.2.3,Linux x86_64,59.99880002,0.5564,,,,,,,,,,,,
1.1,right,1,0,10,10,7,1,stim/blank.png,stim/congLeft.png,right,180,,001,2022-01-27_19h57.22.111,ANT,2021.2.3,Linux x86_64,59.99880002,0.485,,,,,,,,,,,,
0.55,left,0,0,11,11,22,1,stim/centre.png,stim/incongLeft.png,right,180,,001,2022-01-27_19h57.22.111,ANT,2021.2.3,Linux x86_64,59.99880002,0.4838,,,,,,,,,,,,
0.4,left,1,0,12,12,3,1,stim/blank.png,stim/congLeft.png,left,0,,001,2022-01-27_19h57.22.111,ANT,2021.2.3,Linux x86_64,59.99880002,0.9011,,,,,,,,,,,,
0.55,right,1,0,13,13,4,1,stim/lower.png,stim/congLeft.png,right,180,,001,2022-01-27_19h57.22.111,ANT,2021.2.3,Linux x86_64,59.99880002,0.551,,,,,,,,,,,,
0.8,right,1,0,14,14,5,1,stim/both.png,stim/congLeft.png,right,180,,001,2022-01-27_19h57.22.111,ANT,2021.2.3,Linux x86_64,59.99880002,0.6173,,,,,,,,,,,,
1.05,right,1,0,15,15,6,1,stim/centre.png,stim/congLeft.png,right,180,,001,2022-01-27_19h57.22.111,ANT,2021.2.3,Linux x86_64,59.99880002,0.6023,,,,,,,,,,,,
1.45,left,1,0,16,16,17,1,stim/both.png,stim/incongLeft.png,left,0,,001,2022-01-27_19h57.22.111,ANT,2021.2.3,Linux x86_64,59.99880002,0.6844,,,,,,,,,,,,
0.45,right,1,0,17,17,8,1,stim/upper.png,stim/congRight.png,right,0,,001,2022-01-27_19h57.22.111,ANT,2021.2.3,Linux x86_64,59.99880002,0.5508,,,,,,,,,,,,
1.3,left,0,0,18,18,20,1,stim/lower.png,stim/incongLeft.png,right,180,,001,2022-01-27_19h57.22.111,ANT,2021.2.3,Linux x86_64,59.99880002,0.4835,,,,,,,,,,,,
0.7,right,1,0,19,19,21,1,stim/both.png,stim/incongLeft.png,right,180,,001,2022-01-27_19h57.22.111,ANT,2021.2.3,Linux x86_64,59.99880002,0.8653,,,,,,,,,,,,
0.85,left,1,0,20,20,12,1,stim/lower.png,stim/congRight.png,left,180,,001,2022-01-27_19h57.22.111,ANT,2021.2.3,Linux x86_64,59.99880002,0.534,,,,,,,,,,,,
1.05,right,0,0,21,21,18,1,stim/centre.png,stim/incongLeft.png,left,0,,001,2022-01-27_19h57.22.111,ANT,2021.2.3,Linux x86_64,59.99880002,0.6161,,,,,,,,,,,,
1.4,left,1,0,22,22,15,1,stim/blank.png,stim/congRight.png,left,180,,001,2022-01-27_19h57.22.111,ANT,2021.2.3,Linux x86_64,59.99880002,0.6339,,,,,,,,,,,,
0.5,left,1,0,23,23,14,1,stim/centre.png,stim/congRight.png,left,180,,001,2022-01-27_19h57.22.111,ANT,2021.2.3,Linux x86_64,59.99880002,0.532,,,,,,,,,,,,
1.35,left,1,,,,,,stim/upper.png,stim/congLeft.png,left,0,,001,2022-01-27_19h57.22.111,ANT,2021.2.3,Linux x86_64,59.99880002,0.7337,space,12.2921,0,0,0,0,1,,,,,
1.45,right,1,,,,,,stim/both.png,stim/neutralLeft.png,right,180,,001,2022-01-27_19h57.22.111,ANT,2021.2.3,Linux x86_64,59.99880002,0.6033,,,0,1,1,37,1,,,,,
0.7,right,1,,,,,,stim/both.png,stim/congRight.png,right,0,,001,2022-01-27_19h57.22.111,ANT,2021.2.3,Linux x86_64,59.99880002,0.5841,,,0,2,2,9,1,,,,,
0.75,left,1,,,,,,stim/blank.png,stim/congRight.png,left,180,,001,2022-01-27_19h57.22.111,ANT,2021.2.3,Linux x86_64,59.99880002,0.5834,,,0,3,3,15,1,,,,,
0.6,left,1,,,,,,stim/blank.png,stim/congLeft.png,left,0,,001,2022-01-27_19h57.22.111,ANT,2021.2.3,Linux x86_64,59.99880002,0.5851,,,0,4,4,3,1,,,,,
0.4,left,1,,,,,,stim/lower.png,stim/neutralRight.png,left,180,,001,2022-01-27_19h57.22.111,ANT,2021.2.3,Linux x86_64,59.99880002,0.7495,,,0,5,5,44,1,,,,,
0.7,left,1,,,,,,stim/both.png,stim/congLeft.png,left,0,,001,2022-01-27_19h57.22.111,ANT,2021.2.3,Linux x86_64,59.99880002,0.7842,,,0,6,6,1,1,,,,,
0.9,right,1,,,,,,stim/blank.png,stim/neutralRight.png,right,0,,001,2022-01-27_19h57.22.111,ANT,2021.2.3,Linux x86_64,59.99880002,0.467,,,0,7,7,43,1,,,,,
0.8,right,1,,,,,,stim/lower.png,stim/congLeft.png,right,180,,001,2022-01-27_19h57.22.111,ANT,2021.2.3,Linux x86_64,59.99880002,0.6169,,,0,8,8,4,1,,,,,
1.25,right,1,,,,,,stim/both.png,stim/incongLeft.png,right,180,,001,2022-01-27_19h57.22.111,ANT,2021.2.3,Linux x86_64,59.99880002,0.7521,,,0,9,9,21,1,,,,,
1.4,right,1,,,,,,stim/blank.png,stim/incongRight.png,right,0,,001,2022-01-27_19h57.22.111,ANT,2021.2.3,Linux x86_64,59.99880002,0.767,,,0,10,10,27,1,,,,,
0.7,left,1,,,,,,stim/centre.png,stim/congRight.png,left,180,,001,2022-01-27_19h57.22.111,ANT,2021.2.3,Linux x86_64,59.99880002,0.5653,,,0,11,11,14,1,,,,,
1.05,left,1,,,,,,stim/centre.png,stim/incongLeft.png,left,0,,001,2022-01-27_19h57.22.111,ANT,2021.2.3,Linux x86_64,59.99880002,0.619,,,0,12,12,18,1,,,,,
0.75,left,1,,,,,,stim/centre.png,stim/incongRight.png,left,180,,001,2022-01-27_19h57.22.111,ANT,2021.2.3,Linux x86_64,59.99880002,0.771,,,0,13,13,30,1,,,,,
0.95,right,1,,,,,,stim/blank.png,stim/incongLeft.png,right,180,,001,2022-01-27_19h57.22.111,ANT,2021.2.3,Linux x86_64,59.99880002,0.8178,,,0,14,14,23,1,,,,,
1.5,right,1,,,,,,stim/upper.png,stim/incongRight.png,right,0,,001,2022-01-27_19h57.22.111,ANT,2021.2.3,Linux x86_64,59.99880002,0.8341,,,0,15,15,24,1,,,,,
1.55,left,1,,,,,,stim/both.png,stim/incongLeft.png,left,0,,001,2022-01-27_19h57.22.111,ANT,2021.2.3,Linux x86_64,59.99880002,0.6648,,,0,16,16,17,1,,,,,
1.5,right,1,,,,,,stim/both.png,stim/incongRight.png,right,0,,001,2022-01-27_19h57.22.111,ANT,2021.2.3,Linux x86_64,59.99880002,0.651,,,0,17,17,25,1,,,,,
1.5,right,1,,,,,,stim/upper.png,stim/neutralRight.png,right,0,,001,2022-01-27_19h57.22.111,ANT,2021.2.3,Linux x86_64,59.99880002,0.6349,,,0,18,18,40,1,,,,,
0.7,left,1,,,,,,stim/both.png,stim/neutralLeft.png,left,0,,001,2022-01-27_19h57.22.111,ANT,2021.2.3,Linux x86_64,59.99880002,0.6489,,,0,19,19,33,1,,,,,
0.6,left,1,,,,,,stim/blank.png,stim/incongRight.png,left,180,,001,2022-01-27_19h57.22.111,ANT,2021.2.3,Linux x86_64,59.99880002,0.7676,,,0,20,20,31,1,,,,,
0.75,right,1,,,,,,stim/centre.png,stim/incongRight.png,right,0,,001,2022-01-27_19h57.22.111,ANT,2021.2.3,Linux x86_64,59.99880002,0.6365,,,0,21,21,26,1,,,,,
1.5,right,1,,,,,,stim/centre.png,stim/neutralRight.png,right,0,,001,2022-01-27_19h57.22.111,ANT,2021.2.3,Linux x86_64,59.99880002,0.5166,,,0,22,22,42,1,,,,,
0.6,right,1,,,,,,stim/centre.png,stim/congLeft.png,right,180,,001,2022-01-27_19h57.22.111,ANT,2021.2.3,Linux x86_64,59.99880002,0.9032,,,0,23,23,6,1,,,,,
0.75,left,1,,,,,,stim/both.png,stim/congRight.png,left,180,,001,2022-01-27_19h57.22.111,ANT,2021.2.3,Linux x86_64,59.99880002,0.7186,,,0,24,24,13,1,,,,,
0.8,left,1,,,,,,stim/centre.png,stim/neutralRight.png,left,180,,001,2022-01-27_19h57.22.111,ANT,2021.2.3,Linux x86_64,59.99880002,0.6694,,,0,25,25,46,1,,,,,
0.75,right,1,,,,,,stim/blank.png,stim/neutralLeft.png,right,180,,001,2022-01-27_19h57.22.111,ANT,2021.2.3,Linux x86_64,59.99880002,0.6168,,,0,26,26,39,1,,,,,
0.95,left,1,,,,,,stim/centre.png,stim/neutralLeft.png,left,0,,001,2022-01-27_19h57.22.111,ANT,2021.2.3,Linux x86_64,59.99880002,0.5829,,,0,27,27,34,1,,,,,
0.5,left,1,,,,,,stim/upper.png,stim/neutralLeft.png,left,0,,001,2022-01-27_19h57.22.111,ANT,2021.2.3,Linux x86_64,59.99880002,0.6531,,,0,28,28,32,1,,,,,
1.3,right,1,,,,,,stim/centre.png,stim/neutralLeft.png,right,180,,001,2022-01-27_19h57.22.111,ANT,2021.2.3,Linux x86_64,59.99880002,0.6854,,,0,29,29,38,1,,,,,
0.5,right,1,,,,,,stim/lower.png,stim/incongLeft.png,right,180,,001,2022-01-27_19h57.22.111,ANT,2021.2.3,Linux x86_64,59.99880002,0.6838,,,0,30,30,20,1,,,,,
0.55,left,1,,,,,,stim/lower.png,stim/incongRight.png,left,180,,001,2022-01-27_19h57.22.111,ANT,2021.2.3,Linux x86_64,59.99880002,0.6893,,,0,31,31,28,1,,,,,
1,right,1,,,,,,stim/upper.png,stim/congRight.png,right,0,,001,2022-01-27_19h57.22.111,ANT,2021.2.3,Linux x86_64,59.99880002,0.5841,,,0,32,32,8,1,,,,,
1.15,left,1,,,,,,stim/both.png,stim/neutralRight.png,left,180,,001,2022-01-27_19h57.22.111,ANT,2021.2.3,Linux x86_64,59.99880002,0.7157,,,0,33,33,45,1,,,,,
1.3,left,1,,,,,,stim/both.png,stim/incongRight.png,left,180,,001,2022-01-27_19h57.22.111,ANT,2021.2.3,Linux x86_64,59.99880002,0.6836,,,0,34,34,29,1,,,,,
1.1,left,1,,,,,,stim/centre.png,stim/congLeft.png,left,0,,001,2022-01-27_19h57.22.111,ANT,2021.2.3,Linux x86_64,59.99880002,0.6666,,,0,35,35,2,1,,,,,
1.55,right,1,,,,,,stim/blank.png,stim/congLeft.png,right,180,,001,2022-01-27_19h57.22.111,ANT,2021.2.3,Linux x86_64,59.99880002,0.6329,,,0,36,36,7,1,,,,,
0.45,right,1,,,,,,stim/centre.png,stim/congRight.png,right,0,,001,2022-01-27_19h57.22.111,ANT,2021.2.3,Linux x86_64,59.99880002,0.7826,,,0,37,37,10,1,,,,,
0.4,right,1,,,,,,stim/both.png,stim/neutralRight.png,right,0,,001,2022-01-27_19h57.22.111,ANT,2021.2.3,Linux x86_64,59.99880002,0.7551,,,0,38,38,41,1,,,,,
1.2,right,1,,,,,,stim/lower.png,stim/neutralLeft.png,right,180,,001,2022-01-27_19h57.22.111,ANT,2021.2.3,Linux x86_64,59.99880002,0.668,,,0,39,39,36,1,,,,,
1.3,left,1,,,,,,stim/upper.png,stim/incongLeft.png,left,0,,001,2022-01-27_19h57.22.111,ANT,2021.2.3,Linux x86_64,59.99880002,0.7506,,,0,40,40,16,1,,,,,
0.55,left,1,,,,,,stim/blank.png,stim/neutralRight.png,left,180,,001,2022-01-27_19h57.22.111,ANT,2021.2.3,Linux x86_64,59.99880002,0.7175,,,0,41,41,47,1,,,,,
0.95,right,1,,,,,,stim/blank.png,stim/congRight.png,right,0,,001,2022-01-27_19h57.22.111,ANT,2021.2.3,Linux x86_64,59.99880002,0.5332,,,0,42,42,11,1,,,,,
1.25,right,1,,,,,,stim/both.png,stim/congLeft.png,right,180,,001,2022-01-27_19h57.22.111,ANT,2021.2.3,Linux x86_64,59.99880002,0.735,,,0,43,43,5,1,,,,,
0.85,left,1,,,,,,stim/blank.png,stim/neutralLeft.png,left,0,,001,2022-01-27_19h57.22.111,ANT,2021.2.3,Linux x86_64,59.99880002,0.6683,,,0,44,44,35,1,,,,,
0.5,left,1,,,,,,stim/lower.png,stim/congRight.png,left,180,,001,2022-01-27_19h57.22.111,ANT,2021.2.3,Linux x86_64,59.99880002,0.7505,,,0,45,45,12,1,,,,,
0.9,left,1,,,,,,stim/blank.png,stim/incongLeft.png,left,0,,001,2022-01-27_19h57.22.111,ANT,2021.2.3,Linux x86_64,59.99880002,0.7179,,,0,46,46,19,1,,,,,
0.8,right,1,,,,,,stim/centre.png,stim/incongLeft.png,right,180,,001,2022-01-27_19h57.22.111,ANT,2021.2.3,Linux x86_64,59.99880002,0.854,,,0,47,47,22,1,,,,,
1.5,right,1,,,,,,stim/blank.png,stim/neutralRight.png,right,0,,001,2022-01-27_19h57.22.111,ANT,2021.2.3,Linux x86_64,59.99880002,0.7021,,,1,0,48,43,1,,,,,
0.65,right,1,,,,,,stim/centre.png,stim/incongRight.png,right,0,,001,2022-01-27_19h57.22.111,ANT,2021.2.3,Linux x86_64,59.99880002,0.6339,,,1,1,49,26,1,,,,,
0.5,right,1,,,,,,stim/blank.png,stim/incongRight.png,right,0,,001,2022-01-27_19h57.22.111,ANT,2021.2.3,Linux x86_64,59.99880002,0.6684,,,1,2,50,27,1,,,,,
0.75,right,1,,,,,,stim/centre.png,stim/neutralLeft.png,right,180,,001,2022-01-27_19h57.22.111,ANT,2021.2.3,Linux x86_64,59.99880002,0.7202,,,1,3,51,38,1,,,,,
1.2,right,1,,,,,,stim/lower.png,stim/neutralLeft.png,right,180,,001,2022-01-27_19h57.22.111,ANT,2021.2.3,Linux x86_64,59.99880002,0.5514,,,1,4,52,36,1,,,,,
1.2,right,1,,,,,,stim/upper.png,stim/incongRight.png,right,0,,001,2022-01-27_19h57.22.111,ANT,2021.2.3,Linux x86_64,59.99880002,0.6682,,,1,5,53,24,1,,,,,
0.85,right,1,,,,,,stim/both.png,stim/incongRight.png,right,0,,001,2022-01-27_19h57.22.111,ANT,2021.2.3,Linux x86_64,59.99880002,0.6046,,,1,6,54,25,1,,,,,
0.45,right,1,,,,,,stim/centre.png,stim/incongLeft.png,right,180,,001,2022-01-27_19h57.22.111,ANT,2021.2.3,Linux x86_64,59.99880002,0.7388,,,1,7,55,22,1,,,,,
1.35,left,1,,,,,,stim/centre.png,stim/congRight.png,left,180,,001,2022-01-27_19h57.22.111,ANT,2021.2.3,Linux x86_64,59.99880002,0.6673,,,1,8,56,14,1,,,,,
1.55,right,1,,,,,,stim/both.png,stim/neutralLeft.png,right,180,,001,2022-01-27_19h57.22.111,ANT,2021.2.3,Linux x86_64,59.99880002,0.5465,,,1,9,57,37,1,,,,,
0.8,left,1,,,,,,stim/blank.png,stim/congLeft.png,left,0,,001,2022-01-27_19h57.22.111,ANT,2021.2.3,Linux x86_64,59.99880002,0.6502,,,1,10,58,3,1,,,,,
0.5,right,1,,,,,,stim/centre.png,stim/congRight.png,right,0,,001,2022-01-27_19h57.22.111,ANT,2021.2.3,Linux x86_64,59.99880002,0.5675,,,1,11,59,10,1,,,,,
1.55,left,1,,,,,,stim/centre.png,stim/incongRight.png,left,180,,001,2022-01-27_19h57.22.111,ANT,2021.2.3,Linux x86_64,59.99880002,0.7699,,,1,12,60,30,1,,,,,
1.2,left,1,,,,,,stim/centre.png,stim/neutralRight.png,left,180,,001,2022-01-27_19h57.22.111,ANT,2021.2.3,Linux x86_64,59.99880002,0.6657,,,1,13,61,46,1,,,,,
0.9,left,1,,,,,,stim/blank.png,stim/incongLeft.png,left,0,,001,2022-01-27_19h57.22.111,ANT,2021.2.3,Linux x86_64,59.99880002,0.7674,,,1,14,62,19,1,,,,,
1.25,left,1,,,,,,stim/lower.png,stim/incongRight.png,left,180,,001,2022-01-27_19h57.22.111,ANT,2021.2.3,Linux x86_64,59.99880002,0.7154,,,1,15,63,28,1,,,,,
0.85,left,1,,,,,,stim/both.png,stim/neutralLeft.png,left,0,,001,2022-01-27_19h57.22.111,ANT,2021.2.3,Linux x86_64,59.99880002,0.6528,,,1,16,64,33,1,,,,,
0.8,right,1,,,,,,stim/upper.png,stim/neutralRight.png,right,0,,001,2022-01-27_19h57.22.111,ANT,2021.2.3,Linux x86_64,59.99880002,0.6175,,,1,17,65,40,1,,,,,
1.15,left,1,,,,,,stim/centre.png,stim/incongLeft.png,left,0,,001,2022-01-27_19h57.22.111,ANT,2021.2.3,Linux x86_64,59.99880002,0.5843,,,1,18,66,18,1,,,,,
1.55,right,1,,,,,,stim/lower.png,stim/congLeft.png,right,180,,001,2022-01-27_19h57.22.111,ANT,2021.2.3,Linux x86_64,59.99880002,0.7011,,,1,19,67,4,1,,,,,
1.35,right,1,,,,,,stim/blank.png,stim/neutralLeft.png,right,180,,001,2022-01-27_19h57.22.111,ANT,2021.2.3,Linux x86_64,59.99880002,0.6362,,,1,20,68,39,1,,,,,
1.15,right,1,,,,,,stim/lower.png,stim/incongLeft.png,right,180,,001,2022-01-27_19h57.22.111,ANT,2021.2.3,Linux x86_64,59.99880002,0.7506,,,1,21,69,20,1,,,,,
0.6,right,1,,,,,,stim/centre.png,stim/neutralRight.png,right,0,,001,2022-01-27_19h57.22.111,ANT,2021.2.3,Linux x86_64,59.99880002,0.8004,,,1,22,70,42,1,,,,,
1.25,left,1,,,,,,stim/upper.png,stim/congLeft.png,left,0,,001,2022-01-27_19h57.22.111,ANT,2021.2.3,Linux x86_64,59.99880002,0.5489,,,1,23,71,0,1,,,,,
1.05,right,1,,,,,,stim/both.png,stim/incongLeft.png,right,180,,001,2022-01-27_19h57.22.111,ANT,2021.2.3,Linux x86_64,59.99880002,0.7833,,,1,24,72,21,1,,,,,
0.6,left,1,,,,,,stim/both.png,stim/incongLeft.png,left,0,,001,2022-01-27_19h57.22.111,ANT,2021.2.3,Linux x86_64,59.99880002,0.6491,,,1,25,73,17,1,,,,,
0.65,left,1,,,,,,stim/centre.png,stim/neutralLeft.png,left,0,,001,2022-01-27_19h57.22.111,ANT,2021.2.3,Linux x86_64,59.99880002,0.5675,,,1,26,74,34,1,,,,,
0.8,right,1,,,,,,stim/both.png,stim/congRight.png,right,0,,001,2022-01-27_19h57.22.111,ANT,2021.2.3,Linux x86_64,59.99880002,0.6338,,,1,27,75,9,1,,,,,
0.9,right,1,,,,,,stim/blank.png,stim/incongLeft.png,right,180,,001,2022-01-27_19h57.22.111,ANT,2021.2.3,Linux x86_64,59.99880002,0.8343,,,1,28,76,23,1,,,,,
1,right,1,,,,,,stim/upper.png,stim/congRight.png,right,0,,001,2022-01-27_19h57.22.111,ANT,2021.2.3,Linux x86_64,59.99880002,0.8509,,,1,29,77,8,1,,,,,
1.25,left,1,,,,,,stim/both.png,stim/congRight.png,left,180,,001,2022-01-27_19h57.22.111,ANT,2021.2.3,Linux x86_64,59.99880002,0.6336,,,1,30,78,13,1,,,,,
1.4,left,1,,,,,,stim/blank.png,stim/incongRight.png,left,180,,001,2022-01-27_19h57.22.111,ANT,2021.2.3,Linux x86_64,59.99880002,0.7827,,,1,31,79,31,1,,,,,
1.25,left,1,,,,,,stim/lower.png,stim/neutralRight.png,left,180,,001,2022-01-27_19h57.22.111,ANT,2021.2.3,Linux x86_64,59.99880002,0.6476,,,1,32,80,44,1,,,,,
0.4,left,1,,,,,,stim/both.png,stim/congLeft.png,left,0,,001,2022-01-27_19h57.22.111,ANT,2021.2.3,Linux x86_64,59.99880002,0.7007,,,1,33,81,1,1,,,,,
0.65,left,1,,,,,,stim/upper.png,stim/incongLeft.png,left,0,,001,2022-01-27_19h57.22.111,ANT,2021.2.3,Linux x86_64,59.99880002,0.7678,,,1,34,82,16,1,,,,,
1.15,left,1,,,,,,stim/blank.png,stim/neutralLeft.png,left,0,,001,2022-01-27_19h57.22.111,ANT,2021.2.3,Linux x86_64,59.99880002,0.6315,,,1,35,83,35,1,,,,,
1.35,left,1,,,,,,stim/centre.png,stim/congLeft.png,left,0,,001,2022-01-27_19h57.22.111,ANT,2021.2.3,Linux x86_64,59.99880002,0.7682,,,1,36,84,2,1,,,,,
0.5,left,1,,,,,,stim/blank.png,stim/congRight.png,left,180,,001,2022-01-27_19h57.22.111,ANT,2021.2.3,Linux x86_64,59.99880002,0.7978,,,1,37,85,15,1,,,,,
1.1,left,1,,,,,,stim/both.png,stim/neutralRight.png,left,180,,001,2022-01-27_19h57.22.111,ANT,2021.2.3,Linux x86_64,59.99880002,0.7319,,,1,38,86,45,1,,,,,
1.55,left,1,,,,,,stim/blank.png,stim/neutralRight.png,left,180,,001,2022-01-27_19h57.22.111,ANT,2021.2.3,Linux x86_64,59.99880002,0.6008,,,1,39,87,47,1,,,,,
1.35,right,1,,,,,,stim/blank.png,stim/congRight.png,right,0,,001,2022-01-27_19h57.22.111,ANT,2021.2.3,Linux x86_64,59.99880002,0.7674,,,1,40,88,11,1,,,,,
1.05,left,1,,,,,,stim/upper.png,stim/neutralLeft.png,left,0,,001,2022-01-27_19h57.22.111,ANT,2021.2.3,Linux x86_64,59.99880002,0.6181,,,1,41,89,32,1,,,,,
1.25,right,1,,,,,,stim/blank.png,stim/congLeft.png,right,180,,001,2022-01-27_19h57.22.111,ANT,2021.2.3,Linux x86_64,59.99880002,0.6704,,,1,42,90,7,1,,,,,
0.6,right,1,,,,,,stim/both.png,stim/neutralRight.png,right,0,,001,2022-01-27_19h57.22.111,ANT,2021.2.3,Linux x86_64,59.99880002,0.7356,,,1,43,91,41,1,,,,,
0.95,right,1,,,,,,stim/centre.png,stim/congLeft.png,right,180,,001,2022-01-27_19h57.22.111,ANT,2021.2.3,Linux x86_64,59.99880002,0.6968,,,1,44,92,6,1,,,,,
1.35,right,1,,,,,,stim/both.png,stim/congLeft.png,right,180,,001,2022-01-27_19h57.22.111,ANT,2021.2.3,Linux x86_64,59.99880002,0.6715,,,1,45,93,5,1,,,,,
1.25,left,1,,,,,,stim/lower.png,stim/congRight.png,left,180,,001,2022-01-27_19h57.22.111,ANT,2021.2.3,Linux x86_64,59.99880002,0.5843,,,1,46,94,12,1,,,,,
0.85,left,1,,,,,,stim/both.png,stim/incongRight.png,left,180,,001,2022-01-27_19h57.22.111,ANT,2021.2.3,Linux x86_64,59.99880002,0.735,,,1,47,95,29,1,,,,,
,,,,,,,,,,,,,001,2022-01-27_19h57.22.111,ANT,2021.2.3,Linux x86_64,59.99880002,,,,,,,,,0,0,0,0,1
0.4,left,1,,,,,,stim/lower.png,stim/incongRight.png,left,180,,001,2022-01-27_19h57.22.111,ANT,2021.2.3,Linux x86_64,59.99880002,1.1494,,,0,0,0,28,1,,,,,
1.25,right,1,,,,,,stim/both.png,stim/congLeft.png,right,180,,001,2022-01-27_19h57.22.111,ANT,2021.2.3,Linux x86_64,59.99880002,0.6536,,,0,1,1,5,1,,,,,
0.9,left,1,,,,,,stim/both.png,stim/incongLeft.png,left,0,,001,2022-01-27_19h57.22.111,ANT,2021.2.3,Linux x86_64,59.99880002,0.7988,,,0,2,2,17,1,,,,,
1.2,right,1,,,,,,stim/upper.png,stim/congRight.png,right,0,,001,2022-01-27_19h57.22.111,ANT,2021.2.3,Linux x86_64,59.99880002,0.5541,,,0,3,3,8,1,,,,,
1.55,left,1,,,,,,stim/upper.png,stim/incongLeft.png,left,0,,001,2022-01-27_19h57.22.111,ANT,2021.2.3,Linux x86_64,59.99880002,0.6165,,,0,4,4,16,1,,,,,
1,left,1,,,,,,stim/blank.png,stim/congLeft.png,left,0,,001,2022-01-27_19h57.22.111,ANT,2021.2.3,Linux x86_64,59.99880002,0.6161,,,0,5,5,3,1,,,,,
0.55,left,1,,,,,,stim/both.png,stim/neutralLeft.png,left,0,,001,2022-01-27_19h57.22.111,ANT,2021.2.3,Linux x86_64,59.99880002,0.699,,,0,6,6,33,1,,,,,
0.9,right,1,,,,,,stim/centre.png,stim/incongRight.png,right,0,,001,2022-01-27_19h57.22.111,ANT,2021.2.3,Linux x86_64,59.99880002,0.6504,,,0,7,7,26,1,,,,,
1.3,left,1,,,,,,stim/centre.png,stim/incongLeft.png,left,0,,001,2022-01-27_19h57.22.111,ANT,2021.2.3,Linux x86_64,59.99880002,0.5835,,,0,8,8,18,1,,,,,
0.6,right,1,,,,,,stim/blank.png,stim/congLeft.png,right,180,,001,2022-01-27_19h57.22.111,ANT,2021.2.3,Linux x86_64,59.99880002,0.7196,,,0,9,9,7,1,,,,,
1.4,left,1,,,,,,stim/lower.png,stim/congRight.png,left,180,,001,2022-01-27_19h57.22.111,ANT,2021.2.3,Linux x86_64,59.99880002,0.7691,,,0,10,10,12,1,,,,,
1.4,right,1,,,,,,stim/both.png,stim/congRight.png,right,0,,001,2022-01-27_19h57.22.111,ANT,2021.2.3,Linux x86_64,59.99880002,0.5359,,,0,11,11,9,1,,,,,
1.1,left,1,,,,,,stim/both.png,stim/congRight.png,left,180,,001,2022-01-27_19h57.22.111,ANT,2021.2.3,Linux x86_64,59.99880002,0.6257,,,0,12,12,13,1,,,,,
1.4,right,1,,,,,,stim/centre.png,stim/neutralRight.png,right,0,,001,2022-01-27_19h57.22.111,ANT,2021.2.3,Linux x86_64,59.99880002,0.7001,,,0,13,13,42,1,,,,,
0.4,left,1,,,,,,stim/centre.png,stim/congRight.png,left,180,,001,2022-01-27_19h57.22.111,ANT,2021.2.3,Linux x86_64,59.99880002,0.6339,,,0,14,14,14,1,,,,,
1,right,1,,,,,,stim/centre.png,stim/neutralLeft.png,right,180,,001,2022-01-27_19h57.22.111,ANT,2021.2.3,Linux x86_64,59.99880002,0.6017,,,0,15,15,38,1,,,,,
1.1,left,1,,,,,,stim/blank.png,stim/neutralRight.png,left,180,,001,2022-01-27_19h57.22.111,ANT,2021.2.3,Linux x86_64,59.99880002,0.6875,,,0,16,16,47,1,,,,,
0.95,left,1,,,,,,stim/centre.png,stim/neutralRight.png,left,180,,001,2022-01-27_19h57.22.111,ANT,2021.2.3,Linux x86_64,59.99880002,0.8656,,,0,17,17,46,1,,,,,
0.75,left,1,,,,,,stim/centre.png,stim/incongRight.png,left,180,,001,2022-01-27_19h57.22.111,ANT,2021.2.3,Linux x86_64,59.99880002,0.749,,,0,18,18,30,1,,,,,
1.55,right,1,,,,,,stim/centre.png,stim/congLeft.png,right,180,,001,2022-01-27_19h57.22.111,ANT,2021.2.3,Linux x86_64,59.99880002,0.599,,,0,19,19,6,1,,,,,
1.4,right,1,,,,,,stim/centre.png,stim/incongLeft.png,right,180,,001,2022-01-27_19h57.22.111,ANT,2021.2.3,Linux x86_64,59.99880002,0.9336,,,0,20,20,22,1,,,,,
1.1,right,1,,,,,,stim/blank.png,stim/incongRight.png,right,0,,001,2022-01-27_19h57.22.111,ANT,2021.2.3,Linux x86_64,59.99880002,1.0811,,,0,21,21,27,1,,,,,
0.75,right,1,,,,,,stim/centre.png,stim/congRight.png,right,0,,001,2022-01-27_19h57.22.111,ANT,2021.2.3,Linux x86_64,59.99880002,0.6176,,,0,22,22,10,1,,,,,
1.3,left,1,,,,,,stim/upper.png,stim/congLeft.png,left,0,,001,2022-01-27_19h57.22.111,ANT,2021.2.3,Linux x86_64,59.99880002,0.5815,,,0,23,23,0,1,,,,,
1.2,right,1,,,,,,stim/both.png,stim/neutralLeft.png,right,180,,001,2022-01-27_19h57.22.111,ANT,2021.2.3,Linux x86_64,59.99880002,0.6515,,,0,24,24,37,1,,,,,
0.8,left,1,,,,,,stim/both.png,stim/congLeft.png,left,0,,001,2022-01-27_19h57.22.111,ANT,2021.2.3,Linux x86_64,59.99880002,0.6184,,,0,25,25,1,1,,,,,
1,left,1,,,,,,stim/both.png,stim/neutralRight.png,left,180,,001,2022-01-27_19h57.22.111,ANT,2021.2.3,Linux x86_64,59.99880002,0.7181,,,0,26,26,45,1,,,,,
0.85,left,1,,,,,,stim/both.png,stim/incongRight.png,left,180,,001,2022-01-27_19h57.22.111,ANT,2021.2.3,Linux x86_64,59.99880002,0.9809,,,0,27,27,29,1,,,,,
1.35,right,1,,,,,,stim/blank.png,stim/neutralRight.png,right,0,,001,2022-01-27_19h57.22.111,ANT,2021.2.3,Linux x86_64,59.99880002,0.9507,,,0,28,28,43,1,,,,,
1.55,left,1,,,,,,stim/upper.png,stim/neutralLeft.png,left,0,,001,2022-01-27_19h57.22.111,ANT,2021.2.3,Linux x86_64,59.99880002,0.6352,,,0,29,29,32,1,,,,,
0.7,right,1,,,,,,stim/upper.png,stim/incongRight.png,right,0,,001,2022-01-27_19h57.22.111,ANT,2021.2.3,Linux x86_64,59.99880002,0.5488,,,0,30,30,24,1,,,,,
0.55,right,1,,,,,,stim/lower.png,stim/congLeft.png,right,180,,001,2022-01-27_19h57.22.111,ANT,2021.2.3,Linux x86_64,59.99880002,0.7847,,,0,31,31,4,1,,,,,
0.7,right,1,,,,,,stim/both.png,stim/neutralRight.png,right,0,,001,2022-01-27_19h57.22.111,ANT,2021.2.3,Linux x86_64,59.99880002,0.667,,,0,32,32,41,1,,,,,
0.8,right,1,,,,,,stim/lower.png,stim/neutralLeft.png,right,180,,001,2022-01-27_19h57.22.111,ANT,2021.2.3,Linux x86_64,59.99880002,0.7028,,,0,33,33,36,1,,,,,
0.55,right,1,,,,,,stim/blank.png,stim/congRight.png,right,0,,001,2022-01-27_19h57.22.111,ANT,2021.2.3,Linux x86_64,59.99880002,0.6986,,,0,34,34,11,1,,,,,
0.75,left,1,,,,,,stim/blank.png,stim/incongLeft.png,left,0,,001,2022-01-27_19h57.22.111,ANT,2021.2.3,Linux x86_64,59.99880002,0.5336,,,0,35,35,19,1,,,,,
1.1,left,1,,,,,,stim/centre.png,stim/neutralLeft.png,left,0,,001,2022-01-27_19h57.22.111,ANT,2021.2.3,Linux x86_64,59.99880002,0.5197,,,0,36,36,34,1,,,,,
0.85,left,1,,,,,,stim/blank.png,stim/congRight.png,left,180,,001,2022-01-27_19h57.22.111,ANT,2021.2.3,Linux x86_64,59.99880002,0.7172,,,0,37,37,15,1,,,,,
0.85,right,1,,,,,,stim/upper.png,stim/neutralRight.png,right,0,,001,2022-01-27_19h57.22.111,ANT,2021.2.3,Linux x86_64,59.99880002,0.5153,,,0,38,38,40,1,,,,,
0.65,right,1,,,,,,stim/blank.png,stim/neutralLeft.png,right,180,,001,2022-01-27_19h57.22.111,ANT,2021.2.3,Linux x86_64,59.99880002,0.6157,,,0,39,39,39,1,,,,,
0.75,left,1,,,,,,stim/blank.png,stim/incongRight.png,left,180,,001,2022-01-27_19h57.22.111,ANT,2021.2.3,Linux x86_64,59.99880002,0.7991,,,0,40,40,31,1,,,,,
1.1,left,1,,,,,,stim/blank.png,stim/neutralLeft.png,left,0,,001,2022-01-27_19h57.22.111,ANT,2021.2.3,Linux x86_64,59.99880002,0.6688,,,0,41,41,35,1,,,,,
1.3,left,1,,,,,,stim/lower.png,stim/neutralRight.png,left,180,,001,2022-01-27_19h57.22.111,ANT,2021.2.3,Linux x86_64,59.99880002,0.6341,,,0,42,42,44,1,,,,,
0.5,right,1,,,,,,stim/blank.png,stim/incongLeft.png,right,180,,001,2022-01-27_19h57.22.111,ANT,2021.2.3,Linux x86_64,59.99880002,0.7494,,,0,43,43,23,1,,,,,
0.65,right,1,,,,,,stim/lower.png,stim/incongLeft.png,right,180,,001,2022-01-27_19h57.22.111,ANT,2021.2.3,Linux x86_64,59.99880002,0.7031,,,0,44,44,20,1,,,,,
1.55,left,1,,,,,,stim/centre.png,stim/congLeft.png,left,0,,001,2022-01-27_19h57.22.111,ANT,2021.2.3,Linux x86_64,59.99880002,0.9149,,,0,45,45,2,1,,,,,
1,right,1,,,,,,stim/both.png,stim/incongRight.png,right,0,,001,2022-01-27_19h57.22.111,ANT,2021.2.3,Linux x86_64,59.99880002,0.735,,,0,46,46,25,1,,,,,
0.65,right,1,,,,,,stim/both.png,stim/incongLeft.png,right,180,,001,2022-01-27_19h57.22.111,ANT,2021.2.3,Linux x86_64,59.99880002,1.0337,,,0,47,47,21,1,,,,,
0.65,right,1,,,,,,stim/both.png,stim/incongLeft.png,right,180,,001,2022-01-27_19h57.22.111,ANT,2021.2.3,Linux x86_64,59.99880002,0.7192,,,1,0,48,21,1,,,,,
1.55,right,1,,,,,,stim/lower.png,stim/neutralLeft.png,right,180,,001,2022-01-27_19h57.22.111,ANT,2021.2.3,Linux x86_64,59.99880002,0.6329,,,1,1,49,36,1,,,,,
1.55,left,1,,,,,,stim/blank.png,stim/incongRight.png,left,180,,001,2022-01-27_19h57.22.111,ANT,2021.2.3,Linux x86_64,59.99880002,0.8812,,,1,2,50,31,1,,,,,
1.55,left,1,,,,,,stim/both.png,stim/congRight.png,left,180,,001,2022-01-27_19h57.22.111,ANT,2021.2.3,Linux x86_64,59.99880002,0.7493,,,1,3,51,13,1,,,,,
1.3,left,1,,,,,,stim/centre.png,stim/congRight.png,left,180,,001,2022-01-27_19h57.22.111,ANT,2021.2.3,Linux x86_64,59.99880002,0.5973,,,1,4,52,14,1,,,,,
1.1,right,1,,,,,,stim/centre.png,stim/neutralRight.png,right,0,,001,2022-01-27_19h57.22.111,ANT,2021.2.3,Linux x86_64,59.99880002,0.7334,,,1,5,53,42,1,,,,,
1.45,left,1,,,,,,stim/lower.png,stim/congRight.png,left,180,,001,2022-01-27_19h57.22.111,ANT,2021.2.3,Linux x86_64,59.99880002,0.5535,,,1,6,54,12,1,,,,,
1.2,left,1,,,,,,stim/centre.png,stim/neutralRight.png,left,180,,001,2022-01-27_19h57.22.111,ANT,2021.2.3,Linux x86_64,59.99880002,0.5167,,,1,7,55,46,1,,,,,
1.25,right,1,,,,,,stim/blank.png,stim/congLeft.png,right,180,,001,2022-01-27_19h57.22.111,ANT,2021.2.3,Linux x86_64,59.99880002,0.5679,,,1,8,56,7,1,,,,,
1.25,left,1,,,,,,stim/both.png,stim/congLeft.png,left,0,,001,2022-01-27_19h57.22.111,ANT,2021.2.3,Linux x86_64,59.99880002,0.503,,,1,9,57,1,1,,,,,
0.65,right,1,,,,,,stim/upper.png,stim/incongRight.png,right,0,,001,2022-01-27_19h57.22.111,ANT,2021.2.3,Linux x86_64,59.99880002,0.7011,,,1,10,58,24,1,,,,,
0.9,right,1,,,,,,stim/lower.png,stim/incongLeft.png,right,180,,001,2022-01-27_19h57.22.111,ANT,2021.2.3,Linux x86_64,59.99880002,0.8495,,,1,11,59,20,1,,,,,
0.4,left,1,,,,,,stim/blank.png,stim/incongLeft.png,left,0,,001,2022-01-27_19h57.22.111,ANT,2021.2.3,Linux x86_64,59.99880002,0.6676,,,1,12,60,19,1,,,,,
1.25,right,1,,,,,,stim/blank.png,stim/neutralRight.png,right,0,,001,2022-01-27_19h57.22.111,ANT,2021.2.3,Linux x86_64,59.99880002,0.6171,,,1,13,61,43,1,,,,,
0.45,left,1,,,,,,stim/both.png,stim/incongRight.png,left,180,,001,2022-01-27_19h57.22.111,ANT,2021.2.3,Linux x86_64,59.99880002,0.8044,,,1,14,62,29,1,,,,,
1,right,1,,,,,,stim/upper.png,stim/neutralRight.png,right,0,,001,2022-01-27_19h57.22.111,ANT,2021.2.3,Linux x86_64,59.99880002,0.782,,,1,15,63,40,1,,,,,
0.55,left,1,,,,,,stim/both.png,stim/neutralLeft.png,left,0,,001,2022-01-27_19h57.22.111,ANT,2021.2.3,Linux x86_64,59.99880002,0.6481,,,1,16,64,33,1,,,,,
1.35,right,1,,,,,,stim/blank.png,stim/incongRight.png,right,0,,001,2022-01-27_19h57.22.111,ANT,2021.2.3,Linux x86_64,59.99880002,0.651,,,1,17,65,27,1,,,,,
0.7,right,1,,,,,,stim/both.png,stim/neutralRight.png,right,0,,001,2022-01-27_19h57.22.111,ANT,2021.2.3,Linux x86_64,59.99880002,0.7497,,,1,18,66,41,1,,,,,
0.4,left,1,,,,,,stim/centre.png,stim/incongRight.png,left,180,,001,2022-01-27_19h57.22.111,ANT,2021.2.3,Linux x86_64,59.99880002,0.8996,,,1,19,67,30,1,,,,,
0.55,right,1,,,,,,stim/both.png,stim/congLeft.png,right,180,,001,2022-01-27_19h57.22.111,ANT,2021.2.3,Linux x86_64,59.99880002,0.7161,,,1,20,68,5,1,,,,,
0.5,left,1,,,,,,stim/upper.png,stim/congLeft.png,left,0,,001,2022-01-27_19h57.22.111,ANT,2021.2.3,Linux x86_64,59.99880002,0.6006,,,1,21,69,0,1,,,,,
0.7,left,1,,,,,,stim/both.png,stim/neutralRight.png,left,180,,001,2022-01-27_19h57.22.111,ANT,2021.2.3,Linux x86_64,59.99880002,0.8146,,,1,22,70,45,1,,,,,
1.1,right,1,,,,,,stim/blank.png,stim/congRight.png,right,0,,001,2022-01-27_19h57.22.111,ANT,2021.2.3,Linux x86_64,59.99880002,0.6167,,,1,23,71,11,1,,,,,
0.55,right,1,,,,,,stim/both.png,stim/incongRight.png,right,0,,001,2022-01-27_19h57.22.111,ANT,2021.2.3,Linux x86_64,59.99880002,0.667,,,1,24,72,25,1,,,,,
0.5,right,1,,,,,,stim/centre.png,stim/congLeft.png,right,180,,001,2022-01-27_19h57.22.111,ANT,2021.2.3,Linux x86_64,59.99880002,0.6683,,,1,25,73,6,1,,,,,
1.1,left,1,,,,,,stim/blank.png,stim/congRight.png,left,180,,001,2022-01-27_19h57.22.111,ANT,2021.2.3,Linux x86_64,59.99880002,0.5676,,,1,26,74,15,1,,,,,
1.55,left,1,,,,,,stim/upper.png,stim/incongLeft.png,left,0,,001,2022-01-27_19h57.22.111,ANT,2021.2.3,Linux x86_64,59.99880002,0.8182,,,1,27,75,16,1,,,,,
0.4,right,1,,,,,,stim/blank.png,stim/neutralLeft.png,right,180,,001,2022-01-27_19h57.22.111,ANT,2021.2.3,Linux x86_64,59.99880002,0.6179,,,1,28,76,39,1,,,,,
1.35,right,1,,,,,,stim/both.png,stim/congRight.png,right,0,,001,2022-01-27_19h57.22.111,ANT,2021.2.3,Linux x86_64,59.99880002,0.6654,,,1,29,77,9,1,,,,,
0.4,left,1,,,,,,stim/blank.png,stim/neutralRight.png,left,180,,001,2022-01-27_19h57.22.111,ANT,2021.2.3,Linux x86_64,59.99880002,0.6159,,,1,30,78,47,1,,,,,
0.65,left,1,,,,,,stim/lower.png,stim/neutralRight.png,left,180,,001,2022-01-27_19h57.22.111,ANT,2021.2.3,Linux x86_64,59.99880002,0.5346,,,1,31,79,44,1,,,,,
0.8,left,1,,,,,,stim/centre.png,stim/incongLeft.png,left,0,,001,2022-01-27_19h57.22.111,ANT,2021.2.3,Linux x86_64,59.99880002,0.6673,,,1,32,80,18,1,,,,,
1.15,left,1,,,,,,stim/upper.png,stim/neutralLeft.png,left,0,,001,2022-01-27_19h57.22.111,ANT,2021.2.3,Linux x86_64,59.99880002,0.6152,,,1,33,81,32,1,,,,,
1.2,left,1,,,,,,stim/centre.png,stim/congLeft.png,left,0,,001,2022-01-27_19h57.22.111,ANT,2021.2.3,Linux x86_64,59.99880002,0.567,,,1,34,82,2,1,,,,,
0.55,left,1,,,,,,stim/blank.png,stim/neutralLeft.png,left,0,,001,2022-01-27_19h57.22.111,ANT,2021.2.3,Linux x86_64,59.99880002,0.5843,,,1,35,83,35,1,,,,,
0.6,right,1,,,,,,stim/centre.png,stim/congRight.png,right,0,,001,2022-01-27_19h57.22.111,ANT,2021.2.3,Linux x86_64,59.99880002,0.5182,,,1,36,84,10,1,,,,,
1.15,left,1,,,,,,stim/blank.png,stim/congLeft.png,left,0,,001,2022-01-27_19h57.22.111,ANT,2021.2.3,Linux x86_64,59.99880002,0.6154,,,1,37,85,3,1,,,,,
1.4,left,1,,,,,,stim/centre.png,stim/neutralLeft.png,left,0,,001,2022-01-27_19h57.22.111,ANT,2021.2.3,Linux x86_64,59.99880002,0.6506,,,1,38,86,34,1,,,,,
0.8,left,1,,,,,,stim/lower.png,stim/incongRight.png,left,180,,001,2022-01-27_19h57.22.111,ANT,2021.2.3,Linux x86_64,59.99880002,0.7674,,,1,39,87,28,1,,,,,
1.35,right,1,,,,,,stim/lower.png,stim/congLeft.png,right,180,,001,2022-01-27_19h57.22.111,ANT,2021.2.3,Linux x86_64,59.99880002,0.5616,,,1,40,88,4,1,,,,,
0.9,right,1,,,,,,stim/both.png,stim/neutralLeft.png,right,180,,001,2022-01-27_19h57.22.111,ANT,2021.2.3,Linux x86_64,59.99880002,0.6839,,,1,41,89,37,1,,,,,
1.15,right,1,,,,,,stim/centre.png,stim/incongRight.png,right,0,,001,2022-01-27_19h57.22.111,ANT,2021.2.3,Linux x86_64,59.99880002,0.7155,,,1,42,90,26,1,,,,,
0.6,right,1,,,,,,stim/blank.png,stim/incongLeft.png,right,180,,001,2022-01-27_19h57.22.111,ANT,2021.2.3,Linux x86_64,59.99880002,0.9195,,,1,43,91,23,1,,,,,
1.25,right,1,,,,,,stim/centre.png,stim/incongLeft.png,right,180,,001,2022-01-27_19h57.22.111,ANT,2021.2.3,Linux x86_64,59.99880002,0.64,,,1,44,92,22,1,,,,,
0.4,left,1,,,,,,stim/both.png,stim/incongLeft.png,left,0,,001,2022-01-27_19h57.22.111,ANT,2021.2.3,Linux x86_64,59.99880002,0.814,,,1,45,93,17,1,,,,,
1.35,right,1,,,,,,stim/upper.png,stim/congRight.png,right,0,,001,2022-01-27_19h57.22.111,ANT,2021.2.3,Linux x86_64,59.99880002,0.5658,,,1,46,94,8,1,,,,,
0.8,right,1,,,,,,stim/centre.png,stim/neutralLeft.png,right,180,,001,2022-01-27_19h57.22.111,ANT,2021.2.3,Linux x86_64,59.99880002,0.9143,,,1,47,95,38,1,,,,,
,,,,,,,,,,,,,001,2022-01-27_19h57.22.111,ANT,2021.2.3,Linux x86_64,59.99880002,,,,,,,,,1,0,1,0,1
1.45,right,1,,,,,,stim/blank.png,stim/congLeft.png,right,180,,001,2022-01-27_19h57.22.111,ANT,2021.2.3,Linux x86_64,59.99880002,0.5997,,,0,0,0,7,1,,,,,
1.3,right,1,,,,,,stim/lower.png,stim/congLeft.png,right,180,,001,2022-01-27_19h57.22.111,ANT,2021.2.3,Linux x86_64,59.99880002,0.6035,,,0,1,1,4,1,,,,,
1.05,left,1,,,,,,stim/both.png,stim/incongLeft.png,left,0,,001,2022-01-27_19h57.22.111,ANT,2021.2.3,Linux x86_64,59.99880002,0.7318,,,0,2,2,17,1,,,,,
0.65,right,1,,,,,,stim/both.png,stim/neutralRight.png,right,0,,001,2022-01-27_19h57.22.111,ANT,2021.2.3,Linux x86_64,59.99880002,0.6852,,,0,3,3,41,1,,,,,
0.7,left,1,,,,,,stim/blank.png,stim/congLeft.png,left,0,,001,2022-01-27_19h57.22.111,ANT,2021.2.3,Linux x86_64,59.99880002,0.6013,,,0,4,4,3,1,,,,,
1.3,left,1,,,,,,stim/upper.png,stim/neutralLeft.png,left,0,,001,2022-01-27_19h57.22.111,ANT,2021.2.3,Linux x86_64,59.99880002,0.5668,,,0,5,5,32,1,,,,,
0.9,left,1,,,,,,stim/centre.png,stim/neutralRight.png,left,180,,001,2022-01-27_19h57.22.111,ANT,2021.2.3,Linux x86_64,59.99880002,0.7156,,,0,6,6,46,1,,,,,
1.55,right,1,,,,,,stim/centre.png,stim/congLeft.png,right,180,,001,2022-01-27_19h57.22.111,ANT,2021.2.3,Linux x86_64,59.99880002,0.7681,,,0,7,7,6,1,,,,,
1.45,left,1,,,,,,stim/lower.png,stim/congRight.png,left,180,,001,2022-01-27_19h57.22.111,ANT,2021.2.3,Linux x86_64,59.99880002,0.6342,,,0,8,8,12,1,,,,,
0.6,left,1,,,,,,stim/both.png,stim/neutralLeft.png,left,0,,001,2022-01-27_19h57.22.111,ANT,2021.2.3,Linux x86_64,59.99880002,0.7838,,,0,9,9,33,1,,,,,
0.95,right,1,,,,,,stim/centre.png,stim/congRight.png,right,0,,001,2022-01-27_19h57.22.111,ANT,2021.2.3,Linux x86_64,59.99880002,0.5987,,,0,10,10,10,1,,,,,
0.95,right,1,,,,,,stim/upper.png,stim/congRight.png,right,0,,001,2022-01-27_19h57.22.111,ANT,2021.2.3,Linux x86_64,59.99880002,0.5672,,,0,11,11,8,1,,,,,
0.6,left,1,,,,,,stim/lower.png,stim/incongRight.png,left,180,,001,2022-01-27_19h57.22.111,ANT,2021.2.3,Linux x86_64,59.99880002,0.7157,,,0,12,12,28,1,,,,,
0.4,left,1,,,,,,stim/upper.png,stim/congLeft.png,left,0,,001,2022-01-27_19h57.22.111,ANT,2021.2.3,Linux x86_64,59.99880002,0.6515,,,0,13,13,0,1,,,,,
0.75,right,1,,,,,,stim/centre.png,stim/incongLeft.png,right,180,,001,2022-01-27_19h57.22.111,ANT,2021.2.3,Linux x86_64,59.99880002,0.8678,,,0,14,14,22,1,,,,,
1.15,right,1,,,,,,stim/lower.png,stim/neutralLeft.png,right,180,,001,2022-01-27_19h57.22.111,ANT,2021.2.3,Linux x86_64,59.99880002,0.6477,,,0,15,15,36,1,,,,,
1.1,left,1,,,,,,stim/centre.png,stim/neutralLeft.png,left,0,,001,2022-01-27_19h57.22.111,ANT,2021.2.3,Linux x86_64,59.99880002,0.6538,,,0,16,16,34,1,,,,,
1.1,left,1,,,,,,stim/centre.png,stim/incongLeft.png,left,0,,001,2022-01-27_19h57.22.111,ANT,2021.2.3,Linux x86_64,59.99880002,0.6382,,,0,17,17,18,1,,,,,
1.25,right,1,,,,,,stim/upper.png,stim/neutralRight.png,right,0,,001,2022-01-27_19h57.22.111,ANT,2021.2.3,Linux x86_64,59.99880002,0.733,,,0,18,18,40,1,,,,,
0.7,left,1,,,,,,stim/blank.png,stim/neutralLeft.png,left,0,,001,2022-01-27_19h57.22.111,ANT,2021.2.3,Linux x86_64,59.99880002,0.6353,,,0,19,19,35,1,,,,,
1.35,left,1,,,,,,stim/centre.png,stim/congRight.png,left,180,,001,2022-01-27_19h57.22.111,ANT,2021.2.3,Linux x86_64,59.99880002,0.6887,,,0,20,20,14,1,,,,,
1.45,left,1,,,,,,stim/both.png,stim/congLeft.png,left,0,,001,2022-01-27_19h57.22.111,ANT,2021.2.3,Linux x86_64,59.99880002,0.583,,,0,21,21,1,1,,,,,
0.5,right,1,,,,,,stim/both.png,stim/neutralLeft.png,right,180,,001,2022-01-27_19h57.22.111,ANT,2021.2.3,Linux x86_64,59.99880002,0.7347,,,0,22,22,37,1,,,,,
1.5,right,1,,,,,,stim/centre.png,stim/neutralRight.png,right,0,,001,2022-01-27_19h57.22.111,ANT,2021.2.3,Linux x86_64,59.99880002,0.8174,,,0,23,23,42,1,,,,,
1,left,1,,,,,,stim/both.png,stim/neutralRight.png,left,180,,001,2022-01-27_19h57.22.111,ANT,2021.2.3,Linux x86_64,59.99880002,0.6206,,,0,24,24,45,1,,,,,
0.85,right,1,,,,,,stim/upper.png,stim/incongRight.png,right,0,,001,2022-01-27_19h57.22.111,ANT,2021.2.3,Linux x86_64,59.99880002,1.0149,,,0,25,25,24,1,,,,,
0.4,right,1,,,,,,stim/blank.png,stim/incongRight.png,right,0,,001,2022-01-27_19h57.22.111,ANT,2021.2.3,Linux x86_64,59.99880002,0.7018,,,0,26,26,27,1,,,,,
1.5,left,1,,,,,,stim/both.png,stim/congRight.png,left,180,,001,2022-01-27_19h57.22.111,ANT,2021.2.3,Linux x86_64,59.99880002,0.7343,,,0,27,27,13,1,,,,,
0.8,right,1,,,,,,stim/both.png,stim/congRight.png,right,0,,001,2022-01-27_19h57.22.111,ANT,2021.2.3,Linux x86_64,59.99880002,0.5835,,,0,28,28,9,1,,,,,
1.15,right,1,,,,,,stim/blank.png,stim/incongLeft.png,right,180,,001,2022-01-27_19h57.22.111,ANT,2021.2.3,Linux x86_64,59.99880002,0.9022,,,0,29,29,23,1,,,,,
0.65,right,1,,,,,,stim/centre.png,stim/incongRight.png,right,0,,001,2022-01-27_19h57.22.111,ANT,2021.2.3,Linux x86_64,59.99880002,0.6352,,,0,30,30,26,1,,,,,
1.3,left,1,,,,,,stim/blank.png,stim/congRight.png,left,180,,001,2022-01-27_19h57.22.111,ANT,2021.2.3,Linux x86_64,59.99880002,0.5844,,,0,31,31,15,1,,,,,
1.1,left,1,,,,,,stim/centre.png,stim/incongRight.png,left,180,,001,2022-01-27_19h57.22.111,ANT,2021.2.3,Linux x86_64,59.99880002,0.8495,,,0,32,32,30,1,,,,,
1.2,left,1,,,,,,stim/both.png,stim/incongRight.png,left,180,,001,2022-01-27_19h57.22.111,ANT,2021.2.3,Linux x86_64,59.99880002,0.668,,,0,33,33,29,1,,,,,
0.6,left,1,,,,,,stim/upper.png,stim/incongLeft.png,left,0,,001,2022-01-27_19h57.22.111,ANT,2021.2.3,Linux x86_64,59.99880002,0.7173,,,0,34,34,16,1,,,,,
1.1,right,1,,,,,,stim/blank.png,stim/neutralRight.png,right,0,,001,2022-01-27_19h57.22.111,ANT,2021.2.3,Linux x86_64,59.99880002,0.7828,,,0,35,35,43,1,,,,,
1.4,right,1,,,,,,stim/both.png,stim/incongRight.png,right,0,,001,2022-01-27_19h57.22.111,ANT,2021.2.3,Linux x86_64,59.99880002,0.7668,,,0,36,36,25,1,,,,,
1.4,right,1,,,,,,stim/both.png,stim/incongLeft.png,right,180,,001,2022-01-27_19h57.22.111,ANT,2021.2.3,Linux x86_64,59.99880002,0.8509,,,0,37,37,21,1,,,,,
1.25,left,1,,,,,,stim/lower.png,stim/neutralRight.png,left,180,,001,2022-01-27_19h57.22.111,ANT,2021.2.3,Linux x86_64,59.99880002,0.6156,,,0,38,38,44,1,,,,,
0.45,right,1,,,,,,stim/lower.png,stim/incongLeft.png,right,180,,001,2022-01-27_19h57.22.111,ANT,2021.2.3,Linux x86_64,59.99880002,0.8021,,,0,39,39,20,1,,,,,
0.4,left,1,,,,,,stim/blank.png,stim/incongRight.png,left,180,,001,2022-01-27_19h57.22.111,ANT,2021.2.3,Linux x86_64,59.99880002,0.7334,,,0,40,40,31,1,,,,,
1.5,right,1,,,,,,stim/blank.png,stim/congRight.png,right,0,,001,2022-01-27_19h57.22.111,ANT,2021.2.3,Linux x86_64,59.99880002,0.7003,,,0,41,41,11,1,,,,,
1.3,left,1,,,,,,stim/blank.png,stim/neutralRight.png,left,180,,001,2022-01-27_19h57.22.111,ANT,2021.2.3,Linux x86_64,59.99880002,0.6503,,,0,42,42,47,1,,,,,
1.55,right,1,,,,,,stim/blank.png,stim/neutralLeft.png,right,180,,001,2022-01-27_19h57.22.111,ANT,2021.2.3,Linux x86_64,59.99880002,0.6319,,,0,43,43,39,1,,,,,
0.7,left,1,,,,,,stim/blank.png,stim/incongLeft.png,left,0,,001,2022-01-27_19h57.22.111,ANT,2021.2.3,Linux x86_64,59.99880002,0.8649,,,0,44,44,19,1,,,,,
1.2,left,1,,,,,,stim/centre.png,stim/congLeft.png,left,0,,001,2022-01-27_19h57.22.111,ANT,2021.2.3,Linux x86_64,59.99880002,0.5807,,,0,45,45,2,1,,,,,
0.45,right,1,,,,,,stim/both.png,stim/congLeft.png,right,180,,001,2022-01-27_19h57.22.111,ANT,2021.2.3,Linux x86_64,59.99880002,0.6357,,,0,46,46,5,1,,,,,
0.8,right,1,,,,,,stim/centre.png,stim/neutralLeft.png,right,180,,001,2022-01-27_19h57.22.111,ANT,2021.2.3,Linux x86_64,59.99880002,0.8522,,,0,47,47,38,1,,,,,
1.25,right,1,,,,,,stim/lower.png,stim/neutralLeft.png,right,180,,001,2022-01-27_19h57.22.111,ANT,2021.2.3,Linux x86_64,59.99880002,0.6847,,,1,0,48,36,1,,,,,
0.9,right,1,,,,,,stim/upper.png,stim/congRight.png,right,0,,001,2022-01-27_19h57.22.111,ANT,2021.2.3,Linux x86_64,59.99880002,0.7501,,,1,1,49,8,1,,,,,
1.1,left,1,,,,,,stim/both.png,stim/congLeft.png,left,0,,001,2022-01-27_19h57.22.111,ANT,2021.2.3,Linux x86_64,59.99880002,0.5679,,,1,2,50,1,1,,,,,
1.15,left,1,,,,,,stim/blank.png,stim/neutralLeft.png,left,0,,001,2022-01-27_19h57.22.111,ANT,2021.2.3,Linux x86_64,59.99880002,0.6675,,,1,3,51,35,1,,,,,
1.4,right,1,,,,,,stim/lower.png,stim/congLeft.png,right,180,,001,2022-01-27_19h57.22.111,ANT,2021.2.3,Linux x86_64,59.99880002,0.7037,,,1,4,52,4,1,,,,,
1.4,left,1,,,,,,stim/both.png,stim/incongRight.png,left,180,,001,2022-01-27_19h57.22.111,ANT,2021.2.3,Linux x86_64,59.99880002,0.7002,,,1,5,53,29,1,,,,,
1.2,right,1,,,,,,stim/both.png,stim/neutralRight.png,right,0,,001,2022-01-27_19h57.22.111,ANT,2021.2.3,Linux x86_64,59.99880002,0.702,,,1,6,54,41,1,,,,,
0.7,right,1,,,,,,stim/centre.png,stim/congLeft.png,right,180,,001,2022-01-27_19h57.22.111,ANT,2021.2.3,Linux x86_64,59.99880002,0.5528,,,1,7,55,6,1,,,,,
0.9,left,1,,,,,,stim/both.png,stim/incongLeft.png,left,0,,001,2022-01-27_19h57.22.111,ANT,2021.2.3,Linux x86_64,59.99880002,0.7146,,,1,8,56,17,1,,,,,
1.35,left,1,,,,,,stim/upper.png,stim/neutralLeft.png,left,0,,001,2022-01-27_19h57.22.111,ANT,2021.2.3,Linux x86_64,59.99880002,0.5986,,,1,9,57,32,1,,,,,
0.4,left,1,,,,,,stim/both.png,stim/neutralLeft.png,left,0,,001,2022-01-27_19h57.22.111,ANT,2021.2.3,Linux x86_64,59.99880002,0.701,,,1,10,58,33,1,,,,,
1.2,right,1,,,,,,stim/blank.png,stim/incongRight.png,right,0,,001,2022-01-27_19h57.22.111,ANT,2021.2.3,Linux x86_64,59.99880002,0.7867,,,1,11,59,27,1,,,,,
1.45,left,1,,,,,,stim/centre.png,stim/incongRight.png,left,180,,001,2022-01-27_19h57.22.111,ANT,2021.2.3,Linux x86_64,59.99880002,0.7015,,,1,12,60,30,1,,,,,
0.4,left,1,,,,,,stim/centre.png,stim/incongLeft.png,left,0,,001,2022-01-27_19h57.22.111,ANT,2021.2.3,Linux x86_64,59.99880002,0.9657,,,1,13,61,18,1,,,,,
0.4,left,1,,,,,,stim/upper.png,stim/congLeft.png,left,0,,001,2022-01-27_19h57.22.111,ANT,2021.2.3,Linux x86_64,59.99880002,0.6818,,,1,14,62,0,1,,,,,
0.75,left,1,,,,,,stim/blank.png,stim/incongLeft.png,left,0,,001,2022-01-27_19h57.22.111,ANT,2021.2.3,Linux x86_64,59.99880002,0.8657,,,1,15,63,19,1,,,,,
0.95,left,1,,,,,,stim/centre.png,stim/neutralLeft.png,left,0,,001,2022-01-27_19h57.22.111,ANT,2021.2.3,Linux x86_64,59.99880002,0.5902,,,1,16,64,34,1,,,,,
0.9,right,1,,,,,,stim/centre.png,stim/congRight.png,right,0,,001,2022-01-27_19h57.22.111,ANT,2021.2.3,Linux x86_64,59.99880002,0.6341,,,1,17,65,10,1,,,,,
0.6,left,1,,,,,,stim/centre.png,stim/congRight.png,left,180,,001,2022-01-27_19h57.22.111,ANT,2021.2.3,Linux x86_64,59.99880002,1.0543,,,1,18,66,14,1,,,,,
0.9,left,1,,,,,,stim/blank.png,stim/neutralRight.png,left,180,,001,2022-01-27_19h57.22.111,ANT,2021.2.3,Linux x86_64,59.99880002,0.8005,,,1,19,67,47,1,,,,,
0.45,left,1,,,,,,stim/lower.png,stim/incongRight.png,left,180,,001,2022-01-27_19h57.22.111,ANT,2021.2.3,Linux x86_64,59.99880002,0.701,,,1,20,68,28,1,,,,,
0.6,right,1,,,,,,stim/centre.png,stim/neutralRight.png,right,0,,001,2022-01-27_19h57.22.111,ANT,2021.2.3,Linux x86_64,59.99880002,0.7852,,,1,21,69,42,1,,,,,
0.55,right,1,,,,,,stim/both.png,stim/neutralLeft.png,right,180,,001,2022-01-27_19h57.22.111,ANT,2021.2.3,Linux x86_64,59.99880002,0.7505,,,1,22,70,37,1,,,,,
0.4,left,1,,,,,,stim/both.png,stim/neutralRight.png,left,180,,001,2022-01-27_19h57.22.111,ANT,2021.2.3,Linux x86_64,59.99880002,0.6387,,,1,23,71,45,1,,,,,
1.05,right,1,,,,,,stim/both.png,stim/congLeft.png,right,180,,001,2022-01-27_19h57.22.111,ANT,2021.2.3,Linux x86_64,59.99880002,0.618,,,1,24,72,5,1,,,,,
1.5,right,1,,,,,,stim/both.png,stim/congRight.png,right,0,,001,2022-01-27_19h57.22.111,ANT,2021.2.3,Linux x86_64,59.99880002,0.7013,,,1,25,73,9,1,,,,,
1.05,right,1,,,,,,stim/blank.png,stim/neutralRight.png,right,0,,001,2022-01-27_19h57.22.111,ANT,2021.2.3,Linux x86_64,59.99880002,0.6841,,,1,26,74,43,1,,,,,
0.8,left,1,,,,,,stim/lower.png,stim/congRight.png,left,180,,001,2022-01-27_19h57.22.111,ANT,2021.2.3,Linux x86_64,59.99880002,0.6343,,,1,27,75,12,1,,,,,
1.15,right,1,,,,,,stim/blank.png,stim/congLeft.png,right,180,,001,2022-01-27_19h57.22.111,ANT,2021.2.3,Linux x86_64,59.99880002,0.6005,,,1,28,76,7,1,,,,,
1.2,right,1,,,,,,stim/centre.png,stim/incongLeft.png,right,180,,001,2022-01-27_19h57.22.111,ANT,2021.2.3,Linux x86_64,59.99880002,0.7646,,,1,29,77,22,1,,,,,
0.65,right,1,,,,,,stim/centre.png,stim/neutralLeft.png,right,180,,001,2022-01-27_19h57.22.111,ANT,2021.2.3,Linux x86_64,59.99880002,0.601,,,1,30,78,38,1,,,,,
1.05,right,1,,,,,,stim/centre.png,stim/incongRight.png,right,0,,001,2022-01-27_19h57.22.111,ANT,2021.2.3,Linux x86_64,59.99880002,0.7348,,,1,31,79,26,1,,,,,
1.05,left,1,,,,,,stim/blank.png,stim/congLeft.png,left,0,,001,2022-01-27_19h57.22.111,ANT,2021.2.3,Linux x86_64,59.99880002,0.6015,,,1,32,80,3,1,,,,,
1.1,left,1,,,,,,stim/blank.png,stim/congRight.png,left,180,,001,2022-01-27_19h57.22.111,ANT,2021.2.3,Linux x86_64,59.99880002,0.653,,,1,33,81,15,1,,,,,
1.25,right,1,,,,,,stim/blank.png,stim/incongLeft.png,right,180,,001,2022-01-27_19h57.22.111,ANT,2021.2.3,Linux x86_64,59.99880002,0.7171,,,1,34,82,23,1,,,,,
0.9,left,1,,,,,,stim/blank.png,stim/incongRight.png,left,180,,001,2022-01-27_19h57.22.111,ANT,2021.2.3,Linux x86_64,59.99880002,0.7685,,,1,35,83,31,1,,,,,
1.1,right,1,,,,,,stim/blank.png,stim/neutralLeft.png,right,180,,001,2022-01-27_19h57.22.111,ANT,2021.2.3,Linux x86_64,59.99880002,0.5847,,,1,36,84,39,1,,,,,
1.2,left,1,,,,,,stim/upper.png,stim/incongLeft.png,left,0,,001,2022-01-27_19h57.22.111,ANT,2021.2.3,Linux x86_64,59.99880002,0.8002,,,1,37,85,16,1,,,,,
0.95,right,1,,,,,,stim/lower.png,stim/incongLeft.png,right,180,,001,2022-01-27_19h57.22.111,ANT,2021.2.3,Linux x86_64,59.99880002,0.8179,,,1,38,86,20,1,,,,,
1.45,right,1,,,,,,stim/blank.png,stim/congRight.png,right,0,,001,2022-01-27_19h57.22.111,ANT,2021.2.3,Linux x86_64,59.99880002,0.6843,,,1,39,87,11,1,,,,,
0.45,right,1,,,,,,stim/both.png,stim/incongLeft.png,right,180,,001,2022-01-27_19h57.22.111,ANT,2021.2.3,Linux x86_64,59.99880002,0.9002,,,1,40,88,21,1,,,,,
1.5,right,1,,,,,,stim/upper.png,stim/neutralRight.png,right,0,,001,2022-01-27_19h57.22.111,ANT,2021.2.3,Linux x86_64,59.99880002,0.6679,,,1,41,89,40,1,,,,,
1.15,left,1,,,,,,stim/centre.png,stim/neutralRight.png,left,180,,001,2022-01-27_19h57.22.111,ANT,2021.2.3,Linux x86_64,59.99880002,0.701,,,1,42,90,46,1,,,,,
0.95,right,1,,,,,,stim/upper.png,stim/incongRight.png,right,0,,001,2022-01-27_19h57.22.111,ANT,2021.2.3,Linux x86_64,59.99880002,0.7376,,,1,43,91,24,1,,,,,
1.2,right,1,,,,,,stim/both.png,stim/incongRight.png,right,0,,001,2022-01-27_19h57.22.111,ANT,2021.2.3,Linux x86_64,59.99880002,0.6342,,,1,44,92,25,1,,,,,
1.1,left,1,,,,,,stim/both.png,stim/congRight.png,left,180,,001,2022-01-27_19h57.22.111,ANT,2021.2.3,Linux x86_64,59.99880002,0.7001,,,1,45,93,13,1,,,,,
1,left,1,,,,,,stim/centre.png,stim/congLeft.png,left,0,,001,2022-01-27_19h57.22.111,ANT,2021.2.3,Linux x86_64,59.99880002,0.6338,,,1,46,94,2,1,,,,,
0.6,left,1,,,,,,stim/lower.png,stim/neutralRight.png,left,180,,001,2022-01-27_19h57.22.111,ANT,2021.2.3,Linux x86_64,59.99880002,0.7018,,,1,47,95,44,1,,,,,
,,,,,,,,,,,,,001,2022-01-27_19h57.22.111,ANT,2021.2.3,Linux x86_64,59.99880002,,,,,,,,,2,0,2,0,1
