keyResp.keys,keyResp.corr,keyResp.rt,mouseResp.x,mouseResp.y,mouseResp.leftButton,mouseResp.midButton,mouseResp.rightButton,mouseResp.time,mouseResp.clicked_name,trialRespTimes,moveOnKeys.keys,PracticeLoop.thisRepN,PracticeLoop.thisTrialN,PracticeLoop.thisN,PracticeLoop.thisIndex,PracticeLoop.ran,onsetTime,thisImage,participant,session,date,expName,psychopyVersion,OS,frameRate,moveOnKeys.rt,key_resp.keys,key_resp.rt,mouse.x,mouse.y,mouse.leftButton,mouse.midButton,mouse.rightButton,ExptLoop.thisRepN,ExptLoop.thisTrialN,ExptLoop.thisN,ExptLoop.thisIndex,ExptLoop.ran
c,1,6.5012,,,,,,,,5.2012,,0,0,0,3,1,1.3,images/target_cross.jpg,000,001,2022-04-04_08h13.34.561,choiceRTT,2021.2.3,Win32,59.90534955,,,,,,,,,,,,,
c,1,2.3111,,,,,,,,0.8111,,0,1,1,6,1,1.5,images/target_cross.jpg,000,001,2022-04-04_08h13.34.561,choiceRTT,2021.2.3,Win32,59.90534955,,,,,,,,,,,,,
b,1,3.7262,,,,,,,,2.2262,space,0,2,2,4,1,1.5,images/target_plus.jpg,000,001,2022-04-04_08h13.34.561,choiceRTT,2021.2.3,Win32,59.90534955,1.1519,,,,,,,,,,,,
v,1,2.9187,,,,,,,,1.4187,space,0,3,3,2,1,1.5,images/target_square.jpg,000,001,2022-04-04_08h13.34.561,choiceRTT,2021.2.3,Win32,59.90534955,1.0322,,,,,,,,,,,,
c,1,2.6391,,,,,,,,1.5391,space,0,4,4,0,1,1.1,images/target_cross.jpg,000,001,2022-04-04_08h13.34.561,choiceRTT,2021.2.3,Win32,59.90534955,1.9178,,,,,,,,,,,,
b,1,2.9953,,,,,,,,1.8953,space,0,5,5,7,1,1.1,images/target_plus.jpg,000,001,2022-04-04_08h13.34.561,choiceRTT,2021.2.3,Win32,59.90534955,4.0017,,,,,,,,,,,,
c,0,2.4591,,,,,,,,1.3591,space,0,6,6,5,1,1.1,images/target_square.jpg,000,001,2022-04-04_08h13.34.561,choiceRTT,2021.2.3,Win32,59.90534955,0.5663,,,,,,,,,,,,
b,0,8.6086,,,,,,,,7.3086,space,0,7,7,8,1,1.3,images/target_square.jpg,000,001,2022-04-04_08h13.34.561,choiceRTT,2021.2.3,Win32,59.90534955,57.2037,,,,,,,,,,,,
v,0,6.9761,,,,,,,,5.6761,space,0,8,8,1,1,1.3,images/target_plus.jpg,000,001,2022-04-04_08h13.34.561,choiceRTT,2021.2.3,Win32,59.90534955,0.5686,,,,,,,,,,,,
v,1,3.0753,,,,,,,,1.9753,,,,,,,1.1,images/target_square.jpg,000,001,2022-04-04_08h13.34.561,choiceRTT,2021.2.3,Win32,59.90534955,,space,2.51,0.174831081,0.143581081,0,0,0,0,0,0,5,1
c,1,2.2577,,,,,,,,0.7577,,,,,,,1.5,images/target_cross.jpg,000,001,2022-04-04_08h13.34.561,choiceRTT,2021.2.3,Win32,59.90534955,,,,,,,,,0,1,1,6,1
c,1,2.0255,,,,,,,,0.7255,,,,,,,1.3,images/target_cross.jpg,000,001,2022-04-04_08h13.34.561,choiceRTT,2021.2.3,Win32,59.90534955,,,,,,,,,0,2,2,3,1
b,1,4.3809,,,,,,,,3.0809,,,,,,,1.3,images/target_plus.jpg,000,001,2022-04-04_08h13.34.561,choiceRTT,2021.2.3,Win32,59.90534955,,,,,,,,,0,3,3,1,1
b,1,3.3128,,,,,,,,1.8128,,,,,,,1.5,images/target_plus.jpg,000,001,2022-04-04_08h13.34.561,choiceRTT,2021.2.3,Win32,59.90534955,,,,,,,,,0,4,4,4,1
v,1,2.1788,,,,,,,,0.8788,,,,,,,1.3,images/target_square.jpg,000,001,2022-04-04_08h13.34.561,choiceRTT,2021.2.3,Win32,59.90534955,,,,,,,,,0,5,5,8,1
v,0,2.0622,,,,,,,,0.9622,,,,,,,1.1,images/target_plus.jpg,000,001,2022-04-04_08h13.34.561,choiceRTT,2021.2.3,Win32,59.90534955,,,,,,,,,0,6,6,7,1
v,1,4.2161,,,,,,,,2.7161,,,,,,,1.5,images/target_square.jpg,000,001,2022-04-04_08h13.34.561,choiceRTT,2021.2.3,Win32,59.90534955,,,,,,,,,0,7,7,2,1
c,1,1.8315,,,,,,,,0.7315,,,,,,,1.1,images/target_cross.jpg,000,001,2022-04-04_08h13.34.561,choiceRTT,2021.2.3,Win32,59.90534955,,,,,,,,,0,8,8,0,1
b,0,2.0558,,,,,,,,0.5558,,,,,,,1.5,images/target_square.jpg,000,001,2022-04-04_08h13.34.561,choiceRTT,2021.2.3,Win32,59.90534955,,,,,,,,,1,0,9,2,1
v,1,1.846,,,,,,,,0.746,,,,,,,1.1,images/target_square.jpg,000,001,2022-04-04_08h13.34.561,choiceRTT,2021.2.3,Win32,59.90534955,,,,,,,,,1,1,10,5,1
b,1,2.4195,,,,,,,,0.9195,,,,,,,1.5,images/target_plus.jpg,000,001,2022-04-04_08h13.34.561,choiceRTT,2021.2.3,Win32,59.90534955,,,,,,,,,1,2,11,4,1
v,1,2.1164,,,,,,,,0.8164,,,,,,,1.3,images/target_square.jpg,000,001,2022-04-04_08h13.34.561,choiceRTT,2021.2.3,Win32,59.90534955,,,,,,,,,1,3,12,8,1
b,1,2.6951,,,,,,,,1.5951,,,,,,,1.1,images/target_plus.jpg,000,001,2022-04-04_08h13.34.561,choiceRTT,2021.2.3,Win32,59.90534955,,,,,,,,,1,4,13,7,1
b,1,2.3429,,,,,,,,1.0429,,,,,,,1.3,images/target_plus.jpg,000,001,2022-04-04_08h13.34.561,choiceRTT,2021.2.3,Win32,59.90534955,,,,,,,,,1,5,14,1,1
c,1,2.1773,,,,,,,,0.6773,,,,,,,1.5,images/target_cross.jpg,000,001,2022-04-04_08h13.34.561,choiceRTT,2021.2.3,Win32,59.90534955,,,,,,,,,1,6,15,6,1
c,1,1.6136,,,,,,,,0.5136,,,,,,,1.1,images/target_cross.jpg,000,001,2022-04-04_08h13.34.561,choiceRTT,2021.2.3,Win32,59.90534955,,,,,,,,,1,7,16,0,1
c,1,1.7918,,,,,,,,0.4918,,,,,,,1.3,images/target_cross.jpg,000,001,2022-04-04_08h13.34.561,choiceRTT,2021.2.3,Win32,59.90534955,,,,,,,,,1,8,17,3,1
