response.keys,response.corr,mouseResp.x,mouseResp.y,mouseResp.leftButton,mouseResp.midButton,mouseResp.rightButton,mouseResp.clicked_name,practiceTrials.thisRepN,practiceTrials.thisTrialN,practiceTrials.thisN,practiceTrials.thisIndex,practiceTrials.ran,practiceTrials.order,isi,xPos,corrAns,participant,session,date,expName,psychopyVersion,frameRate,mainTrials.thisRepN,mainTrials.thisTrialN,mainTrials.thisN,mainTrials.thisIndex,mainTrials.ran,mainTrials.order
,0,0.121296311,-0.057407416,1,0,0,targImage,1,0,8,6,1,7,1,0.125,b,0708,001,2022-01-20_12h46.50.765,choiceRTT,3.1.3,60,,,,,,
,0,-0.361111103,0.040740706,1,0,0,targImage,1,0,8,0,1,7,1,-0.375,c,0708,001,2022-01-20_12h46.50.765,choiceRTT,3.1.3,60,,,,,,
,0,-0.12962963,-0.006481489,1,0,0,targImage,1,0,8,1,1,7,1,-0.125,v,0708,001,2022-01-20_12h46.50.765,choiceRTT,3.1.3,60,,,,,,
,0,0.112037023,0.012962942,1,0,0,targImage,1,0,8,2,1,7,1,0.125,b,0708,001,2022-01-20_12h46.50.765,choiceRTT,3.1.3,60,,,,,,
,0,0.383333418,0.001851859,1,0,0,targImage,1,0,8,3,1,7,1,0.375,n,0708,001,2022-01-20_12h46.50.765,choiceRTT,3.1.3,60,,,,,,
,0,0.375925982,0.01666666,1,0,0,targImage,1,0,8,7,1,7,1,0.375,n,0708,001,2022-01-20_12h46.50.765,choiceRTT,3.1.3,60,,,,,,
,0,-0.354629623,-0.011111118,1,0,0,targImage,1,0,8,4,1,7,1,-0.375,c,0708,001,2022-01-20_12h46.50.765,choiceRTT,3.1.3,60,,,,,,
,0,-0.115740741,0.003703683,1,0,0,targImage,1,0,8,5,1,7,1,-0.125,v,0708,001,2022-01-20_12h46.50.765,choiceRTT,3.1.3,60,,,,,,
,0,-0.110185199,0.020370377,1,0,0,targImage,,,,,,,2.7776,-0.125,v,0708,001,2022-01-20_12h46.50.765,choiceRTT,3.1.3,60,1,0,40,33,1,39
,0,0.163888931,0.02407406,1,0,0,targImage,,,,,,,1.4444,0.125,b,0708,001,2022-01-20_12h46.50.765,choiceRTT,3.1.3,60,1,0,40,10,1,39
,0,0.157407407,0.018518519,1,0,0,targImage,,,,,,,2.7776,0.125,b,0708,001,2022-01-20_12h46.50.765,choiceRTT,3.1.3,60,1,0,40,34,1,39
,0,-0.348148134,-0.019444466,1,0,0,targImage,,,,,,,1,-0.375,c,0708,001,2022-01-20_12h46.50.765,choiceRTT,3.1.3,60,1,0,40,0,1,39
,0,-0.363888882,0.005555541,1,0,0,targImage,,,,,,,2.7776,-0.375,c,0708,001,2022-01-20_12h46.50.765,choiceRTT,3.1.3,60,1,0,40,32,1,39
,0,0.079629616,0.02407406,1,0,0,targImage,,,,,,,1.2222,0.125,b,0708,001,2022-01-20_12h46.50.765,choiceRTT,3.1.3,60,1,0,40,6,1,39
,0,0.112963005,0.008333312,1,0,0,targImage,,,,,,,2.3332,0.125,b,0708,001,2022-01-20_12h46.50.765,choiceRTT,3.1.3,60,1,0,40,26,1,39
,0,0.393518519,-0.00462963,1,0,0,targImage,,,,,,,1.6666,0.375,n,0708,001,2022-01-20_12h46.50.765,choiceRTT,3.1.3,60,1,0,40,15,1,39
,0,-0.161111125,-0.023148148,1,0,0,targImage,,,,,,,2.111,-0.125,v,0708,001,2022-01-20_12h46.50.765,choiceRTT,3.1.3,60,1,0,40,21,1,39
,0,0.140740783,-0.010185206,1,0,0,targImage,,,,,,,1,0.125,b,0708,001,2022-01-20_12h46.50.765,choiceRTT,3.1.3,60,1,0,40,2,1,39
,0,0.084259245,0.001851859,1,0,0,targImage,,,,,,,2.5554,0.125,b,0708,001,2022-01-20_12h46.50.765,choiceRTT,3.1.3,60,1,0,40,30,1,39
,0,0.150925954,0.009259259,1,0,0,targImage,,,,,,,2.111,0.125,b,0708,001,2022-01-20_12h46.50.765,choiceRTT,3.1.3,60,1,0,40,22,1,39
,0,-0.395370377,0,1,0,0,targImage,,,,,,,2.111,-0.375,c,0708,001,2022-01-20_12h46.50.765,choiceRTT,3.1.3,60,1,0,40,20,1,39
,0,-0.344444452,0.044444437,1,0,0,targImage,,,,,,,1.2222,-0.375,c,0708,001,2022-01-20_12h46.50.765,choiceRTT,3.1.3,60,1,0,40,4,1,39
,0,0.405555584,0.018518519,1,0,0,targImage,,,,,,,1,0.375,n,0708,001,2022-01-20_12h46.50.765,choiceRTT,3.1.3,60,1,0,40,3,1,39
,0,0.09629631,0.01203703,1,0,0,targImage,,,,,,,1.6666,0.125,b,0708,001,2022-01-20_12h46.50.765,choiceRTT,3.1.3,60,1,0,40,14,1,39
,0,-0.126851824,-0.017592607,1,0,0,targImage,,,,,,,2.5554,-0.125,v,0708,001,2022-01-20_12h46.50.765,choiceRTT,3.1.3,60,1,0,40,29,1,39
,0,0.399074131,0.029629637,1,0,0,targImage,,,,,,,1.8888,0.375,n,0708,001,2022-01-20_12h46.50.765,choiceRTT,3.1.3,60,1,0,40,19,1,39
,0,0.185185185,0.023148148,1,0,0,targImage,,,,,,,2.9998,0.125,b,0708,001,2022-01-20_12h46.50.765,choiceRTT,3.1.3,60,1,0,40,38,1,39
,0,-0.424074067,0.046296296,1,0,0,targImage,,,,,,,2.3332,-0.375,c,0708,001,2022-01-20_12h46.50.765,choiceRTT,3.1.3,60,1,0,40,24,1,39
,0,0.410185213,0.013888889,1,0,0,targImage,,,,,,,2.9998,0.375,n,0708,001,2022-01-20_12h46.50.765,choiceRTT,3.1.3,60,1,0,40,39,1,39
,0,-0.39907406,0.051851838,1,0,0,targImage,,,,,,,2.5554,-0.375,c,0708,001,2022-01-20_12h46.50.765,choiceRTT,3.1.3,60,1,0,40,28,1,39
,0,-0.12962963,-0.047222243,1,0,0,targImage,,,,,,,2.3332,-0.125,v,0708,001,2022-01-20_12h46.50.765,choiceRTT,3.1.3,60,1,0,40,25,1,39
,0,-0.416666667,0.051851838,1,0,0,targImage,,,,,,,1.8888,-0.375,c,0708,001,2022-01-20_12h46.50.765,choiceRTT,3.1.3,60,1,0,40,16,1,39
,0,-0.351851852,0.041666667,1,0,0,targImage,,,,,,,2.9998,-0.375,c,0708,001,2022-01-20_12h46.50.765,choiceRTT,3.1.3,60,1,0,40,36,1,39
,0,-0.148148148,-0.048148155,1,0,0,targImage,,,,,,,1.6666,-0.125,v,0708,001,2022-01-20_12h46.50.765,choiceRTT,3.1.3,60,1,0,40,13,1,39
,0,0.406481566,-0.005555577,1,0,0,targImage,,,,,,,1.4444,0.375,n,0708,001,2022-01-20_12h46.50.765,choiceRTT,3.1.3,60,1,0,40,11,1,39
,0,-0.145370342,-0.036111125,1,0,0,targImage,,,,,,,2.9998,-0.125,v,0708,001,2022-01-20_12h46.50.765,choiceRTT,3.1.3,60,1,0,40,37,1,39
,0,-0.374074053,-0.01666666,1,0,0,targImage,,,,,,,1.6666,-0.375,c,0708,001,2022-01-20_12h46.50.765,choiceRTT,3.1.3,60,1,0,40,12,1,39
,0,-0.155555513,-0.052777785,1,0,0,targImage,,,,,,,1.8888,-0.125,v,0708,001,2022-01-20_12h46.50.765,choiceRTT,3.1.3,60,1,0,40,17,1,39
,0,0.174074102,-0.057407414,1,0,0,targImage,,,,,,,1.8888,0.125,b,0708,001,2022-01-20_12h46.50.765,choiceRTT,3.1.3,60,1,0,40,18,1,39
,0,-0.172222208,-0.058333326,1,0,0,targImage,,,,,,,1,-0.125,v,0708,001,2022-01-20_12h46.50.765,choiceRTT,3.1.3,60,1,0,40,1,1,39
,0,-0.324074074,-0.008333347,1,0,0,targImage,,,,,,,1.4444,-0.375,c,0708,001,2022-01-20_12h46.50.765,choiceRTT,3.1.3,60,1,0,40,8,1,39
,0,0.382407436,-0.027777778,1,0,0,targImage,,,,,,,2.111,0.375,n,0708,001,2022-01-20_12h46.50.765,choiceRTT,3.1.3,60,1,0,40,23,1,39
,0,-0.162962949,-0.073148162,1,0,0,targImage,,,,,,,1.4444,-0.125,v,0708,001,2022-01-20_12h46.50.765,choiceRTT,3.1.3,60,1,0,40,9,1,39
,0,0.424074102,-0.006481489,1,0,0,targImage,,,,,,,2.5554,0.375,n,0708,001,2022-01-20_12h46.50.765,choiceRTT,3.1.3,60,1,0,40,31,1,39
,0,0.363888917,-0.024074095,1,0,0,targImage,,,,,,,2.7776,0.375,n,0708,001,2022-01-20_12h46.50.765,choiceRTT,3.1.3,60,1,0,40,35,1,39
,0,-0.172222208,-0.063888903,1,0,0,targImage,,,,,,,1.2222,-0.125,v,0708,001,2022-01-20_12h46.50.765,choiceRTT,3.1.3,60,1,0,40,5,1,39
,0,0.294444473,-0.038888896,1,0,0,targImage,,,,,,,1.2222,0.375,n,0708,001,2022-01-20_12h46.50.765,choiceRTT,3.1.3,60,1,0,40,7,1,39
,0,0.319444444,-0.041666667,1,0,0,targImage,,,,,,,2.3332,0.375,n,0708,001,2022-01-20_12h46.50.765,choiceRTT,3.1.3,60,1,0,40,27,1,39
