response.keys,response.corr,mouseResp.x,mouseResp.y,mouseResp.leftButton,mouseResp.midButton,mouseResp.rightButton,mouseResp.clicked_name,practiceTrials.thisRepN,practiceTrials.thisTrialN,practiceTrials.thisN,practiceTrials.thisIndex,practiceTrials.ran,practiceTrials.order,isi,xPos,corrAns,participant,session,date,expName,psychopyVersion,frameRate,mainTrials.thisRepN,mainTrials.thisTrialN,mainTrials.thisN,mainTrials.thisIndex,mainTrials.ran,mainTrials.order
,0,-0.313619792,-0.005429687,1,0,0,targImage,1,0,8,0,1,7,1,-0.375,c,jh,001,2022-01-13_16h05.43.609,choiceRTT,3.1.3,60,,,,,,
,0,-0.108467882,-0.010338542,1,0,0,targImage,1,0,8,5,1,7,1,-0.125,v,jh,001,2022-01-13_16h05.43.609,choiceRTT,3.1.3,60,,,,,,
,0,0.392473958,0.00625,1,0,0,targImage,1,0,8,3,1,7,1,0.375,n,jh,001,2022-01-13_16h05.43.609,choiceRTT,3.1.3,60,,,,,,
,0,0.435,0.007122396,1,0,0,targImage,1,0,8,7,1,7,1,0.375,n,jh,001,2022-01-13_16h05.43.609,choiceRTT,3.1.3,60,,,,,,
,0,0.156210938,0.011657986,1,0,0,targImage,1,0,8,2,1,7,1,0.125,b,jh,001,2022-01-13_16h05.43.609,choiceRTT,3.1.3,60,,,,,,
,0,-0.093072917,0.014422743,1,0,0,targImage,1,0,8,1,1,7,1,-0.125,v,jh,001,2022-01-13_16h05.43.609,choiceRTT,3.1.3,60,,,,,,
,0,-0.44077691,0.012044271,1,0,0,targImage,1,0,8,4,1,7,1,-0.375,c,jh,001,2022-01-13_16h05.43.609,choiceRTT,3.1.3,60,,,,,,
,0,0.049674479,0.000664063,1,0,0,targImage,1,0,8,6,1,7,1,0.125,b,jh,001,2022-01-13_16h05.43.609,choiceRTT,3.1.3,60,,,,,,
,0,-0.081584201,-0.022621528,1,0,0,targImage,,,,,,,2.9998,-0.125,v,jh,001,2022-01-13_16h05.43.609,choiceRTT,3.1.3,60,1,0,40,37,1,39
,0,0.318229167,0.001497396,1,0,0,targImage,,,,,,,2.111,0.375,n,jh,001,2022-01-13_16h05.43.609,choiceRTT,3.1.3,60,1,0,40,23,1,39
,0,0.402317708,0.067743056,1,0,0,targImage,,,,,,,1.6666,0.375,n,jh,001,2022-01-13_16h05.43.609,choiceRTT,3.1.3,60,1,0,40,15,1,39
,0,0.045824653,0.015499132,1,0,0,targImage,,,,,,,1.8888,0.125,b,jh,001,2022-01-13_16h05.43.609,choiceRTT,3.1.3,60,1,0,40,18,1,39
,0,0.08109375,0.017534722,1,0,0,targImage,,,,,,,1.4444,0.125,b,jh,001,2022-01-13_16h05.43.609,choiceRTT,3.1.3,60,1,0,40,10,1,39
,0,-0.091493056,0.016371528,1,0,0,targImage,,,,,,,1,-0.125,v,jh,001,2022-01-13_16h05.43.609,choiceRTT,3.1.3,60,1,0,40,1,1,39
,0,-0.347907986,0.002621528,1,0,0,targImage,,,,,,,1.2222,-0.375,c,jh,001,2022-01-13_16h05.43.609,choiceRTT,3.1.3,60,1,0,40,4,1,39
,0,0.078867188,-0.005651042,1,0,0,targImage,,,,,,,2.111,0.125,b,jh,001,2022-01-13_16h05.43.609,choiceRTT,3.1.3,60,1,0,40,22,1,39
,0,0.16671875,0.018767361,1,0,0,targImage,,,,,,,1,0.125,b,jh,001,2022-01-13_16h05.43.609,choiceRTT,3.1.3,60,1,0,40,2,1,39
,0,-0.071705729,0.014769965,1,0,0,targImage,,,,,,,1.2222,-0.125,v,jh,001,2022-01-13_16h05.43.609,choiceRTT,3.1.3,60,1,0,40,5,1,39
,0,-0.350434028,0.00015625,1,0,0,targImage,,,,,,,2.3332,-0.375,c,jh,001,2022-01-13_16h05.43.609,choiceRTT,3.1.3,60,1,0,40,24,1,39
,0,-0.32078125,-0.007712674,1,0,0,targImage,,,,,,,1.6666,-0.375,c,jh,001,2022-01-13_16h05.43.609,choiceRTT,3.1.3,60,1,0,40,12,1,39
,0,-0.341453993,0.038233507,1,0,0,targImage,,,,,,,1.4444,-0.375,c,jh,001,2022-01-13_16h05.43.609,choiceRTT,3.1.3,60,1,0,40,8,1,39
,0,-0.084036458,-0.003359375,1,0,0,targImage,,,,,,,2.3332,-0.125,v,jh,001,2022-01-13_16h05.43.609,choiceRTT,3.1.3,60,1,0,40,25,1,39
,0,-0.118732639,0.003107639,1,0,0,targImage,,,,,,,2.111,-0.125,v,jh,001,2022-01-13_16h05.43.609,choiceRTT,3.1.3,60,1,0,40,21,1,39
,0,0.110251736,0.001054688,1,0,0,targImage,,,,,,,2.3332,0.125,b,jh,001,2022-01-13_16h05.43.609,choiceRTT,3.1.3,60,1,0,40,26,1,39
,0,0.049249132,0.008841146,1,0,0,targImage,,,,,,,2.5554,0.125,b,jh,001,2022-01-13_16h05.43.609,choiceRTT,3.1.3,60,1,0,40,30,1,39
,0,0.140690104,-0.007699653,1,0,0,targImage,,,,,,,1.2222,0.125,b,jh,001,2022-01-13_16h05.43.609,choiceRTT,3.1.3,60,1,0,40,6,1,39
,0,0.42062934,0.059947917,1,0,0,targImage,,,,,,,2.5554,0.375,n,jh,001,2022-01-13_16h05.43.609,choiceRTT,3.1.3,60,1,0,40,31,1,39
,0,-0.09187066,0.032786458,1,0,0,targImage,,,,,,,1.8888,-0.125,v,jh,001,2022-01-13_16h05.43.609,choiceRTT,3.1.3,60,1,0,40,17,1,39
,0,0.295477431,0.020993924,1,0,0,targImage,,,,,,,2.7776,0.375,n,jh,001,2022-01-13_16h05.43.609,choiceRTT,3.1.3,60,1,0,40,35,1,39
,0,-0.394713542,-0.023641493,1,0,0,targImage,,,,,,,2.9998,-0.375,c,jh,001,2022-01-13_16h05.43.609,choiceRTT,3.1.3,60,1,0,40,36,1,39
,0,0.328376736,-0.043524306,1,0,0,targImage,,,,,,,2.3332,0.375,n,jh,001,2022-01-13_16h05.43.609,choiceRTT,3.1.3,60,1,0,40,27,1,39
,0,-0.131484375,-0.008216146,1,0,0,targImage,,,,,,,1.6666,-0.125,v,jh,001,2022-01-13_16h05.43.609,choiceRTT,3.1.3,60,1,0,40,13,1,39
,0,-0.415598958,0.015855035,1,0,0,targImage,,,,,,,2.7776,-0.375,c,jh,001,2022-01-13_16h05.43.609,choiceRTT,3.1.3,60,1,0,40,32,1,39
,0,0.37030816,-0.023619792,1,0,0,targImage,,,,,,,1.4444,0.375,n,jh,001,2022-01-13_16h05.43.609,choiceRTT,3.1.3,60,1,0,40,11,1,39
,0,0.383771701,0,1,0,0,targImage,,,,,,,1.2222,0.375,n,jh,001,2022-01-13_16h05.43.609,choiceRTT,3.1.3,60,1,0,40,7,1,39
,0,-0.106467014,0.011393229,1,0,0,targImage,,,,,,,2.7776,-0.125,v,jh,001,2022-01-13_16h05.43.609,choiceRTT,3.1.3,60,1,0,40,33,1,39
,0,0.150338542,0.02046875,1,0,0,targImage,,,,,,,2.7776,0.125,b,jh,001,2022-01-13_16h05.43.609,choiceRTT,3.1.3,60,1,0,40,34,1,39
,0,0.109887153,-0.003107639,1,0,0,targImage,,,,,,,2.9998,0.125,b,jh,001,2022-01-13_16h05.43.609,choiceRTT,3.1.3,60,1,0,40,38,1,39
,0,-0.397851562,0.020060764,1,0,0,targImage,,,,,,,1,-0.375,c,jh,001,2022-01-13_16h05.43.609,choiceRTT,3.1.3,60,1,0,40,0,1,39
,0,-0.144479167,0.01796441,1,0,0,targImage,,,,,,,1.4444,-0.125,v,jh,001,2022-01-13_16h05.43.609,choiceRTT,3.1.3,60,1,0,40,9,1,39
,0,-0.418051215,-0.043467882,1,0,0,targImage,,,,,,,2.111,-0.375,c,jh,001,2022-01-13_16h05.43.609,choiceRTT,3.1.3,60,1,0,40,20,1,39
,0,0.363211806,0.013181424,1,0,0,targImage,,,,,,,1,0.375,n,jh,001,2022-01-13_16h05.43.609,choiceRTT,3.1.3,60,1,0,40,3,1,39
,0,-0.354752604,0.001679687,1,0,0,targImage,,,,,,,2.5554,-0.375,c,jh,001,2022-01-13_16h05.43.609,choiceRTT,3.1.3,60,1,0,40,28,1,39
,0,0.455267302,-0.075200425,1,0,0,targImage,,,,,,,1.8888,0.375,n,jh,001,2022-01-13_16h05.43.609,choiceRTT,3.1.3,60,1,0,40,19,1,39
,0,-0.469251063,-0.026965396,1,0,0,targImage,,,,,,,1.8888,-0.375,c,jh,001,2022-01-13_16h05.43.609,choiceRTT,3.1.3,60,1,0,40,16,1,39
,0,0.360535627,0.039389725,1,0,0,targImage,,,,,,,2.9998,0.375,n,jh,001,2022-01-13_16h05.43.609,choiceRTT,3.1.3,60,1,0,40,39,1,39
,0,-0.124013212,0.019485234,1,0,0,targImage,,,,,,,2.5554,-0.125,v,jh,001,2022-01-13_16h05.43.609,choiceRTT,3.1.3,60,1,0,40,29,1,39
,0,0.08678624,-0.004085201,1,0,0,targImage,,,,,,,1.6666,0.125,b,jh,001,2022-01-13_16h05.43.609,choiceRTT,3.1.3,60,1,0,40,14,1,39
