response.keys,response.corr,mouseResp.x,mouseResp.y,mouseResp.leftButton,mouseResp.midButton,mouseResp.rightButton,mouseResp.clicked_name,practiceTrials.thisRepN,practiceTrials.thisTrialN,practiceTrials.thisN,practiceTrials.thisIndex,practiceTrials.ran,practiceTrials.order,isi,xPos,corrAns,participant,session,date,expName,psychopyVersion,frameRate,mainTrials.thisRepN,mainTrials.thisTrialN,mainTrials.thisN,mainTrials.thisIndex,mainTrials.ran,mainTrials.order
,0,0.121296311,0.045370335,1,0,0,targImage,1,0,8,6,1,7,1,0.125,b,mmm,001,2022-01-18_16h57.57.525,choiceRTT,3.1.3,60,,,,,,
,0,-0.315740732,-0.018518526,1,0,0,targImage,1,0,8,0,1,7,1,-0.375,c,mmm,001,2022-01-18_16h57.57.525,choiceRTT,3.1.3,60,,,,,,
,0,0.330555574,0.039814808,1,0,0,targImage,1,0,8,7,1,7,1,0.375,n,mmm,001,2022-01-18_16h57.57.525,choiceRTT,3.1.3,60,,,,,,
,0,0.158333349,0.013888882,1,0,0,targImage,1,0,8,2,1,7,1,0.125,b,mmm,001,2022-01-18_16h57.57.525,choiceRTT,3.1.3,60,,,,,,
,0,-0.205555545,0.000925918,1,0,0,targImage,1,0,8,5,1,7,1,-0.125,v,mmm,001,2022-01-18_16h57.57.525,choiceRTT,3.1.3,60,,,,,,
,0,0.39074076,-0.018518526,1,0,0,targImage,1,0,8,3,1,7,1,0.375,n,mmm,001,2022-01-18_16h57.57.525,choiceRTT,3.1.3,60,,,,,,
,0,-0.320370362,0.018518511,1,0,0,targImage,1,0,8,4,1,7,1,-0.375,c,mmm,001,2022-01-18_16h57.57.525,choiceRTT,3.1.3,60,,,,,,
,0,-0.221296286,0.021296289,1,0,0,targImage,1,0,8,1,1,7,1,-0.125,v,mmm,001,2022-01-18_16h57.57.525,choiceRTT,3.1.3,60,,,,,,
,0,-0.320370362,-0.038888897,1,0,0,targImage,,,,,,,1.8888,-0.375,c,mmm,001,2022-01-18_16h57.57.525,choiceRTT,3.1.3,60,1,0,40,16,1,39
,0,0.188888905,0.029629623,1,0,0,targImage,,,,,,,2.9998,0.125,b,mmm,001,2022-01-18_16h57.57.525,choiceRTT,3.1.3,60,1,0,40,38,1,39
,0,0.125925941,0.014814808,1,0,0,targImage,,,,,,,2.7776,0.125,b,mmm,001,2022-01-18_16h57.57.525,choiceRTT,3.1.3,60,1,0,40,34,1,39
,0,-0.057407395,0.010185178,1,0,0,targImage,,,,,,,2.7776,-0.125,v,mmm,001,2022-01-18_16h57.57.525,choiceRTT,3.1.3,60,1,0,40,33,1,39
,0,-0.339814807,-0.008333341,1,0,0,targImage,,,,,,,1,-0.375,c,mmm,001,2022-01-18_16h57.57.525,choiceRTT,3.1.3,60,1,0,40,0,1,39
,0,-0.347222214,0.00277777,1,0,0,targImage,,,,,,,1.6666,-0.375,c,mmm,001,2022-01-18_16h57.57.525,choiceRTT,3.1.3,60,1,0,40,12,1,39
,0,-0.427777771,0.024074067,1,0,0,targImage,,,,,,,1.2222,-0.375,c,mmm,001,2022-01-18_16h57.57.525,choiceRTT,3.1.3,60,1,0,40,4,1,39
,0,0.306481499,0.01203703,1,0,0,targImage,,,,,,,1.2222,0.375,n,mmm,001,2022-01-18_16h57.57.525,choiceRTT,3.1.3,60,1,0,40,7,1,39
,0,-0.405555548,0.0324074,1,0,0,targImage,,,,,,,2.7776,-0.375,c,mmm,001,2022-01-18_16h57.57.525,choiceRTT,3.1.3,60,1,0,40,32,1,39
,0,-0.147222211,0.01203703,1,0,0,targImage,,,,,,,2.111,-0.125,v,mmm,001,2022-01-18_16h57.57.525,choiceRTT,3.1.3,60,1,0,40,21,1,39
,0,-0.303703695,0.018518511,1,0,0,targImage,,,,,,,2.111,-0.375,c,mmm,001,2022-01-18_16h57.57.525,choiceRTT,3.1.3,60,1,0,40,20,1,39
,0,0.131481497,0.012962956,1,0,0,targImage,,,,,,,1.8888,0.125,b,mmm,001,2022-01-18_16h57.57.525,choiceRTT,3.1.3,60,1,0,40,18,1,39
,0,-0.118518451,-0.024074082,1,0,0,targImage,,,,,,,1,-0.125,v,mmm,001,2022-01-18_16h57.57.525,choiceRTT,3.1.3,60,1,0,40,1,1,39
,0,0.099074089,0.010185178,1,0,0,targImage,,,,,,,2.3332,0.125,b,mmm,001,2022-01-18_16h57.57.525,choiceRTT,3.1.3,60,1,0,40,26,1,39
,0,-0.118518451,0.009259252,1,0,0,targImage,,,,,,,1.8888,-0.125,v,mmm,001,2022-01-18_16h57.57.525,choiceRTT,3.1.3,60,1,0,40,17,1,39
,0,-0.087962951,-0.018518526,1,0,0,targImage,,,,,,,1.6666,-0.125,v,mmm,001,2022-01-18_16h57.57.525,choiceRTT,3.1.3,60,1,0,40,13,1,39
,0,0.340740759,0.035185178,1,0,0,targImage,,,,,,,1.8888,0.375,n,mmm,001,2022-01-18_16h57.57.525,choiceRTT,3.1.3,60,1,0,40,19,1,39
,0,-0.09722221,0.031481446,1,0,0,targImage,,,,,,,2.5554,-0.125,v,mmm,001,2022-01-18_16h57.57.525,choiceRTT,3.1.3,60,1,0,40,29,1,39
,0,-0.194444434,-0.009259267,1,0,0,targImage,,,,,,,2.3332,-0.125,v,mmm,001,2022-01-18_16h57.57.525,choiceRTT,3.1.3,60,1,0,40,25,1,39
,0,0.079629644,0.023148141,1,0,0,targImage,,,,,,,1.6666,0.125,b,mmm,001,2022-01-18_16h57.57.525,choiceRTT,3.1.3,60,1,0,40,14,1,39
,0,0.424074094,0.013888882,1,0,0,targImage,,,,,,,2.3332,0.375,n,mmm,001,2022-01-18_16h57.57.525,choiceRTT,3.1.3,60,1,0,40,27,1,39
,0,0.3314815,-0.004629637,1,0,0,targImage,,,,,,,1.4444,0.375,n,mmm,001,2022-01-18_16h57.57.525,choiceRTT,3.1.3,60,1,0,40,11,1,39
,0,0.145370386,-0.012037045,1,0,0,targImage,,,,,,,1.2222,0.125,b,mmm,001,2022-01-18_16h57.57.525,choiceRTT,3.1.3,60,1,0,40,6,1,39
,0,-0.374074066,-0.003703711,1,0,0,targImage,,,,,,,2.9998,-0.375,c,mmm,001,2022-01-18_16h57.57.525,choiceRTT,3.1.3,60,1,0,40,36,1,39
,0,-0.076851783,-0.011111119,1,0,0,targImage,,,,,,,2.9998,-0.125,v,mmm,001,2022-01-18_16h57.57.525,choiceRTT,3.1.3,60,1,0,40,37,1,39
,0,0.171296312,0.003703696,1,0,0,targImage,,,,,,,2.5554,0.125,b,mmm,001,2022-01-18_16h57.57.525,choiceRTT,3.1.3,60,1,0,40,30,1,39
,0,0.410185205,0.023148141,1,0,0,targImage,,,,,,,1.6666,0.375,n,mmm,001,2022-01-18_16h57.57.525,choiceRTT,3.1.3,60,1,0,40,15,1,39
,0,0.082407422,-0.0175926,1,0,0,targImage,,,,,,,1,0.125,b,mmm,001,2022-01-18_16h57.57.525,choiceRTT,3.1.3,60,1,0,40,2,1,39
,0,0.325925944,0.005555548,1,0,0,targImage,,,,,,,2.111,0.375,n,mmm,001,2022-01-18_16h57.57.525,choiceRTT,3.1.3,60,1,0,40,23,1,39
,0,-0.326851843,0.026851817,1,0,0,targImage,,,,,,,2.5554,-0.375,c,mmm,001,2022-01-18_16h57.57.525,choiceRTT,3.1.3,60,1,0,40,28,1,39
,0,0.284259277,0.018518511,1,0,0,targImage,,,,,,,2.9998,0.375,n,mmm,001,2022-01-18_16h57.57.525,choiceRTT,3.1.3,60,1,0,40,39,1,39
,0,0.367592611,0.073148114,1,0,0,targImage,,,,,,,2.7776,0.375,n,mmm,001,2022-01-18_16h57.57.525,choiceRTT,3.1.3,60,1,0,40,35,1,39
,0,0.412037056,-0.009259267,1,0,0,targImage,,,,,,,2.5554,0.375,n,mmm,001,2022-01-18_16h57.57.525,choiceRTT,3.1.3,60,1,0,40,31,1,39
,0,0.115740756,0.062962956,1,0,0,targImage,,,,,,,2.111,0.125,b,mmm,001,2022-01-18_16h57.57.525,choiceRTT,3.1.3,60,1,0,40,22,1,39
,0,0.399074093,0.016666659,1,0,0,targImage,,,,,,,1,0.375,n,mmm,001,2022-01-18_16h57.57.525,choiceRTT,3.1.3,60,1,0,40,3,1,39
,0,-0.145370359,0.048148141,1,0,0,targImage,,,,,,,1.2222,-0.125,v,mmm,001,2022-01-18_16h57.57.525,choiceRTT,3.1.3,60,1,0,40,5,1,39
,0,-0.085185173,0.049074067,1,0,0,targImage,,,,,,,1.4444,-0.125,v,mmm,001,2022-01-18_16h57.57.525,choiceRTT,3.1.3,60,1,0,40,9,1,39
,0,-0.35277777,0.035185178,1,0,0,targImage,,,,,,,1.4444,-0.375,c,mmm,001,2022-01-18_16h57.57.525,choiceRTT,3.1.3,60,1,0,40,8,1,39
,0,0.140740756,0.028703697,1,0,0,targImage,,,,,,,1.4444,0.125,b,mmm,001,2022-01-18_16h57.57.525,choiceRTT,3.1.3,60,1,0,40,10,1,39
,0,-0.367592585,-0.010185193,1,0,0,targImage,,,,,,,2.3332,-0.375,c,mmm,001,2022-01-18_16h57.57.525,choiceRTT,3.1.3,60,1,0,40,24,1,39
