fixDuration,resp.keys,resp.corr,pracLoop.thisRepN,pracLoop.thisTrialN,pracLoop.thisN,pracLoop.thisIndex,pracLoop.ran,cue,tar,corrAns,targOrientation,participant,session,date,expName,psychopyVersion,OS,frameRate,resp.rt,instResp.keys,instResp.rt,mainLoop.thisRepN,mainLoop.thisTrialN,mainLoop.thisN,mainLoop.thisIndex,mainLoop.ran
1.5,,0,0,0,0,19,1,stim/blank.png,stim/incongLeft.png,left,0,e,001,2022-02-21_11h17.50.414,ANT,2021.2.3,Win32,59.97720866,,,,,,,,
1.4,left,1,0,1,1,3,1,stim/blank.png,stim/congLeft.png,left,0,e,001,2022-02-21_11h17.50.414,ANT,2021.2.3,Win32,59.97720866,0.7658,,,,,,,
1.25,right,1,0,2,2,10,1,stim/centre.png,stim/congRight.png,right,0,e,001,2022-02-21_11h17.50.414,ANT,2021.2.3,Win32,59.97720866,0.497,,,,,,,
1.15,left,1,0,3,3,1,1,stim/both.png,stim/congLeft.png,left,0,e,001,2022-02-21_11h17.50.414,ANT,2021.2.3,Win32,59.97720866,0.4248,,,,,,,
0.65,right,1,0,4,4,6,1,stim/centre.png,stim/congLeft.png,right,180,e,001,2022-02-21_11h17.50.414,ANT,2021.2.3,Win32,59.97720866,0.5976,,,,,,,
1.35,left,1,0,5,5,18,1,stim/centre.png,stim/incongLeft.png,left,0,e,001,2022-02-21_11h17.50.414,ANT,2021.2.3,Win32,59.97720866,0.8753,,,,,,,
0.8,left,1,0,6,6,16,1,stim/upper.png,stim/incongLeft.png,left,0,e,001,2022-02-21_11h17.50.414,ANT,2021.2.3,Win32,59.97720866,0.5623,,,,,,,
0.9,right,1,0,7,7,5,1,stim/both.png,stim/congLeft.png,right,180,e,001,2022-02-21_11h17.50.414,ANT,2021.2.3,Win32,59.97720866,0.6587,,,,,,,
0.5,left,1,0,8,8,13,1,stim/both.png,stim/congRight.png,left,180,e,001,2022-02-21_11h17.50.414,ANT,2021.2.3,Win32,59.97720866,0.6903,,,,,,,
0.9,left,0,0,9,9,22,1,stim/centre.png,stim/incongLeft.png,right,180,e,001,2022-02-21_11h17.50.414,ANT,2021.2.3,Win32,59.97720866,0.5288,,,,,,,
0.55,right,1,0,10,10,23,1,stim/blank.png,stim/incongLeft.png,right,180,e,001,2022-02-21_11h17.50.414,ANT,2021.2.3,Win32,59.97720866,0.5872,,,,,,,
1.3,right,1,0,11,11,9,1,stim/both.png,stim/congRight.png,right,0,e,001,2022-02-21_11h17.50.414,ANT,2021.2.3,Win32,59.97720866,0.5222,,,,,,,
1,left,1,0,12,12,0,1,stim/upper.png,stim/congLeft.png,left,0,e,001,2022-02-21_11h17.50.414,ANT,2021.2.3,Win32,59.97720866,0.4902,,,,,,,
0.65,right,1,0,13,13,4,1,stim/lower.png,stim/congLeft.png,right,180,e,001,2022-02-21_11h17.50.414,ANT,2021.2.3,Win32,59.97720866,0.484099999,,,,,,,
0.9,right,1,0,14,14,7,1,stim/blank.png,stim/congLeft.png,right,180,e,001,2022-02-21_11h17.50.414,ANT,2021.2.3,Win32,59.97720866,0.478,,,,,,,
1.1,left,1,0,15,15,14,1,stim/centre.png,stim/congRight.png,left,180,e,001,2022-02-21_11h17.50.414,ANT,2021.2.3,Win32,59.97720866,0.4525,,,,,,,
1.1,right,1,0,16,16,8,1,stim/upper.png,stim/congRight.png,right,0,e,001,2022-02-21_11h17.50.414,ANT,2021.2.3,Win32,59.97720866,0.4205,,,,,,,
1.15,right,1,0,17,17,11,1,stim/blank.png,stim/congRight.png,right,0,e,001,2022-02-21_11h17.50.414,ANT,2021.2.3,Win32,59.97720866,0.4944,,,,,,,
1.1,left,1,0,18,18,17,1,stim/both.png,stim/incongLeft.png,left,0,e,001,2022-02-21_11h17.50.414,ANT,2021.2.3,Win32,59.97720866,0.61,,,,,,,
1.5,left,1,0,19,19,12,1,stim/lower.png,stim/congRight.png,left,180,e,001,2022-02-21_11h17.50.414,ANT,2021.2.3,Win32,59.97720866,0.3787,,,,,,,
0.5,left,1,0,20,20,2,1,stim/centre.png,stim/congLeft.png,left,0,e,001,2022-02-21_11h17.50.414,ANT,2021.2.3,Win32,59.97720866,0.4503,,,,,,,
0.55,right,1,0,21,21,21,1,stim/both.png,stim/incongLeft.png,right,180,e,001,2022-02-21_11h17.50.414,ANT,2021.2.3,Win32,59.97720866,0.678900001,,,,,,,
1.2,right,1,0,22,22,20,1,stim/lower.png,stim/incongLeft.png,right,180,e,001,2022-02-21_11h17.50.414,ANT,2021.2.3,Win32,59.97720866,0.5678,,,,,,,
1.45,left,1,0,23,23,15,1,stim/blank.png,stim/congRight.png,left,180,e,001,2022-02-21_11h17.50.414,ANT,2021.2.3,Win32,59.97720866,0.4717,,,,,,,
1.2,right,1,,,,,,stim/centre.png,stim/incongLeft.png,right,180,e,001,2022-02-21_11h17.50.414,ANT,2021.2.3,Win32,59.97720866,0.5667,space,8.3614,0,0,0,22,1
0.6,left,1,,,,,,stim/centre.png,stim/neutralRight.png,left,180,e,001,2022-02-21_11h17.50.414,ANT,2021.2.3,Win32,59.97720866,0.564200001,,,0,1,1,46,1
0.6,right,1,,,,,,stim/upper.png,stim/incongRight.png,right,0,e,001,2022-02-21_11h17.50.414,ANT,2021.2.3,Win32,59.97720866,0.9557,,,0,2,2,24,1
1.1,left,1,,,,,,stim/centre.png,stim/congRight.png,left,180,e,001,2022-02-21_11h17.50.414,ANT,2021.2.3,Win32,59.97720866,0.442099999,,,0,3,3,14,1
0.7,right,1,,,,,,stim/both.png,stim/congLeft.png,right,180,e,001,2022-02-21_11h17.50.414,ANT,2021.2.3,Win32,59.97720866,0.397099999,,,0,4,4,5,1
0.65,left,1,,,,,,stim/both.png,stim/neutralRight.png,left,180,e,001,2022-02-21_11h17.50.414,ANT,2021.2.3,Win32,59.97720866,0.430400001,,,0,5,5,45,1
1.5,right,1,,,,,,stim/blank.png,stim/neutralLeft.png,right,180,e,001,2022-02-21_11h17.50.414,ANT,2021.2.3,Win32,59.97720866,0.5809,,,0,6,6,39,1
1.3,left,1,,,,,,stim/both.png,stim/neutralLeft.png,left,0,e,001,2022-02-21_11h17.50.414,ANT,2021.2.3,Win32,59.97720866,0.559700001,,,0,7,7,33,1
1.5,right,1,,,,,,stim/both.png,stim/incongRight.png,right,0,e,001,2022-02-21_11h17.50.414,ANT,2021.2.3,Win32,59.97720866,0.570299999,,,0,8,8,25,1
0.9,right,1,,,,,,stim/centre.png,stim/neutralLeft.png,right,180,e,001,2022-02-21_11h17.50.414,ANT,2021.2.3,Win32,59.97720866,0.5707,,,0,9,9,38,1
0.85,right,1,,,,,,stim/blank.png,stim/incongLeft.png,right,180,e,001,2022-02-21_11h17.50.414,ANT,2021.2.3,Win32,59.97720866,0.5005,,,0,10,10,23,1
1.3,left,1,,,,,,stim/blank.png,stim/incongRight.png,left,180,e,001,2022-02-21_11h17.50.414,ANT,2021.2.3,Win32,59.97720866,0.656599999,,,0,11,11,31,1
0.5,left,1,,,,,,stim/blank.png,stim/congLeft.png,left,0,e,001,2022-02-21_11h17.50.414,ANT,2021.2.3,Win32,59.97720866,0.549900001,,,0,12,12,3,1
1.4,left,1,,,,,,stim/blank.png,stim/neutralLeft.png,left,0,e,001,2022-02-21_11h17.50.414,ANT,2021.2.3,Win32,59.97720866,0.5069,,,0,13,13,35,1
1,left,1,,,,,,stim/centre.png,stim/congLeft.png,left,0,e,001,2022-02-21_11h17.50.414,ANT,2021.2.3,Win32,59.97720866,0.334299999,,,0,14,14,2,1
1.2,right,1,,,,,,stim/both.png,stim/congRight.png,right,0,e,001,2022-02-21_11h17.50.414,ANT,2021.2.3,Win32,59.97720866,0.5636,,,0,15,15,9,1
0.7,right,1,,,,,,stim/blank.png,stim/congRight.png,right,0,e,001,2022-02-21_11h17.50.414,ANT,2021.2.3,Win32,59.97720866,0.5101,,,0,16,16,11,1
1.15,right,1,,,,,,stim/lower.png,stim/neutralLeft.png,right,180,e,001,2022-02-21_11h17.50.414,ANT,2021.2.3,Win32,59.97720866,0.5829,,,0,17,17,36,1
0.55,left,1,,,,,,stim/centre.png,stim/neutralLeft.png,left,0,e,001,2022-02-21_11h17.50.414,ANT,2021.2.3,Win32,59.97720866,0.4377,,,0,18,18,34,1
0.55,left,1,,,,,,stim/both.png,stim/congRight.png,left,180,e,001,2022-02-21_11h17.50.414,ANT,2021.2.3,Win32,59.97720866,0.4931,,,0,19,19,13,1
0.6,right,1,,,,,,stim/upper.png,stim/neutralRight.png,right,0,e,001,2022-02-21_11h17.50.414,ANT,2021.2.3,Win32,59.97720866,0.564900001,,,0,20,20,40,1
0.75,right,1,,,,,,stim/centre.png,stim/neutralRight.png,right,0,e,001,2022-02-21_11h17.50.414,ANT,2021.2.3,Win32,59.97720866,0.4332,,,0,21,21,42,1
0.65,left,1,,,,,,stim/both.png,stim/incongRight.png,left,180,e,001,2022-02-21_11h17.50.414,ANT,2021.2.3,Win32,59.97720866,0.531,,,0,22,22,29,1
0.7,right,1,,,,,,stim/blank.png,stim/congLeft.png,right,180,e,001,2022-02-21_11h17.50.414,ANT,2021.2.3,Win32,59.97720866,0.4143,,,0,23,23,7,1
1.35,left,1,,,,,,stim/blank.png,stim/incongLeft.png,left,0,e,001,2022-02-21_11h17.50.414,ANT,2021.2.3,Win32,59.97720866,0.5914,,,0,24,24,19,1
1.25,right,1,,,,,,stim/centre.png,stim/congLeft.png,right,180,e,001,2022-02-21_11h17.50.414,ANT,2021.2.3,Win32,59.97720866,0.4072,,,0,25,25,6,1
1.45,left,1,,,,,,stim/lower.png,stim/neutralRight.png,left,180,e,001,2022-02-21_11h17.50.414,ANT,2021.2.3,Win32,59.97720866,0.3528,,,0,26,26,44,1
0.45,left,1,,,,,,stim/lower.png,stim/incongRight.png,left,180,e,001,2022-02-21_11h17.50.414,ANT,2021.2.3,Win32,59.97720866,0.4639,,,0,27,27,28,1
0.45,left,1,,,,,,stim/both.png,stim/congLeft.png,left,0,e,001,2022-02-21_11h17.50.414,ANT,2021.2.3,Win32,59.97720866,0.4492,,,0,28,28,1,1
1.2,left,1,,,,,,stim/upper.png,stim/congLeft.png,left,0,e,001,2022-02-21_11h17.50.414,ANT,2021.2.3,Win32,59.97720866,0.4173,,,0,29,29,0,1
0.95,right,1,,,,,,stim/blank.png,stim/incongRight.png,right,0,e,001,2022-02-21_11h17.50.414,ANT,2021.2.3,Win32,59.97720866,0.4971,,,0,30,30,27,1
0.75,left,1,,,,,,stim/centre.png,stim/incongRight.png,left,180,e,001,2022-02-21_11h17.50.414,ANT,2021.2.3,Win32,59.97720866,0.663900001,,,0,31,31,30,1
1.15,right,1,,,,,,stim/lower.png,stim/congLeft.png,right,180,e,001,2022-02-21_11h17.50.414,ANT,2021.2.3,Win32,59.97720866,0.282099999,,,0,32,32,4,1
1.05,left,1,,,,,,stim/lower.png,stim/congRight.png,left,180,e,001,2022-02-21_11h17.50.414,ANT,2021.2.3,Win32,59.97720866,0.3745,,,0,33,33,12,1
1.5,left,1,,,,,,stim/blank.png,stim/neutralRight.png,left,180,e,001,2022-02-21_11h17.50.414,ANT,2021.2.3,Win32,59.97720866,0.3563,,,0,34,34,47,1
0.55,left,1,,,,,,stim/upper.png,stim/incongLeft.png,left,0,e,001,2022-02-21_11h17.50.414,ANT,2021.2.3,Win32,59.97720866,0.730700001,,,0,35,35,16,1
0.65,right,1,,,,,,stim/centre.png,stim/incongRight.png,right,0,e,001,2022-02-21_11h17.50.414,ANT,2021.2.3,Win32,59.97720866,0.3151,,,0,36,36,26,1
1.5,left,1,,,,,,stim/blank.png,stim/congRight.png,left,180,e,001,2022-02-21_11h17.50.414,ANT,2021.2.3,Win32,59.97720866,0.380599999,,,0,37,37,15,1
1,left,1,,,,,,stim/both.png,stim/incongLeft.png,left,0,e,001,2022-02-21_11h17.50.414,ANT,2021.2.3,Win32,59.97720866,0.5246,,,0,38,38,17,1
0.45,right,1,,,,,,stim/upper.png,stim/congRight.png,right,0,e,001,2022-02-21_11h17.50.414,ANT,2021.2.3,Win32,59.97720866,0.4532,,,0,39,39,8,1
0.9,left,1,,,,,,stim/upper.png,stim/neutralLeft.png,left,0,e,001,2022-02-21_11h17.50.414,ANT,2021.2.3,Win32,59.97720866,0.4513,,,0,40,40,32,1
0.9,right,1,,,,,,stim/blank.png,stim/neutralRight.png,right,0,e,001,2022-02-21_11h17.50.414,ANT,2021.2.3,Win32,59.97720866,0.356900001,,,0,41,41,43,1
0.8,left,1,,,,,,stim/centre.png,stim/incongLeft.png,left,0,e,001,2022-02-21_11h17.50.414,ANT,2021.2.3,Win32,59.97720866,0.554,,,0,42,42,18,1
0.7,right,1,,,,,,stim/both.png,stim/neutralLeft.png,right,180,e,001,2022-02-21_11h17.50.414,ANT,2021.2.3,Win32,59.97720866,0.4855,,,0,43,43,37,1
0.75,right,1,,,,,,stim/centre.png,stim/congRight.png,right,0,e,001,2022-02-21_11h17.50.414,ANT,2021.2.3,Win32,59.97720866,0.349799999,,,0,44,44,10,1
1.5,left,0,,,,,,stim/lower.png,stim/incongLeft.png,right,180,e,001,2022-02-21_11h17.50.414,ANT,2021.2.3,Win32,59.97720866,0.397200001,,,0,45,45,20,1
1.05,right,1,,,,,,stim/both.png,stim/neutralRight.png,right,0,e,001,2022-02-21_11h17.50.414,ANT,2021.2.3,Win32,59.97720866,0.4495,,,0,46,46,41,1
1.25,right,1,,,,,,stim/both.png,stim/incongLeft.png,right,180,e,001,2022-02-21_11h17.50.414,ANT,2021.2.3,Win32,59.97720866,0.5143,,,0,47,47,21,1
1.05,left,1,,,,,,stim/upper.png,stim/incongLeft.png,left,0,e,001,2022-02-21_11h17.50.414,ANT,2021.2.3,Win32,59.97720866,0.6318,,,1,0,48,16,1
1.35,right,1,,,,,,stim/centre.png,stim/neutralLeft.png,right,180,e,001,2022-02-21_11h17.50.414,ANT,2021.2.3,Win32,59.97720866,0.4643,,,1,1,49,38,1
0.95,right,1,,,,,,stim/blank.png,stim/neutralRight.png,right,0,e,001,2022-02-21_11h17.50.414,ANT,2021.2.3,Win32,59.97720866,0.3354,,,1,2,50,43,1
1.5,right,1,,,,,,stim/both.png,stim/congLeft.png,right,180,e,001,2022-02-21_11h17.50.414,ANT,2021.2.3,Win32,59.97720866,0.4706,,,1,3,51,5,1
0.7,left,0,,,,,,stim/blank.png,stim/incongRight.png,right,0,e,001,2022-02-21_11h17.50.414,ANT,2021.2.3,Win32,59.97720866,0.526,,,1,4,52,27,1
1.3,right,1,,,,,,stim/upper.png,stim/neutralRight.png,right,0,e,001,2022-02-21_11h17.50.414,ANT,2021.2.3,Win32,59.97720866,0.5425,,,1,5,53,40,1
0.6,left,1,,,,,,stim/blank.png,stim/neutralLeft.png,left,0,e,001,2022-02-21_11h17.50.414,ANT,2021.2.3,Win32,59.97720866,0.5329,,,1,6,54,35,1
0.65,left,1,,,,,,stim/blank.png,stim/congLeft.png,left,0,e,001,2022-02-21_11h17.50.414,ANT,2021.2.3,Win32,59.97720866,0.6554,,,1,7,55,3,1
0.55,left,1,,,,,,stim/both.png,stim/incongRight.png,left,180,e,001,2022-02-21_11h17.50.414,ANT,2021.2.3,Win32,59.97720866,0.6006,,,1,8,56,29,1
0.8,right,1,,,,,,stim/both.png,stim/neutralRight.png,right,0,e,001,2022-02-21_11h17.50.414,ANT,2021.2.3,Win32,59.97720866,0.8228,,,1,9,57,41,1
1,right,0,,,,,,stim/lower.png,stim/congRight.png,left,180,e,001,2022-02-21_11h17.50.414,ANT,2021.2.3,Win32,59.97720866,0.5422,,,1,10,58,12,1
0.45,left,1,,,,,,stim/both.png,stim/neutralLeft.png,left,0,e,001,2022-02-21_11h17.50.414,ANT,2021.2.3,Win32,59.97720866,0.4591,,,1,11,59,33,1
1.15,right,1,,,,,,stim/centre.png,stim/incongRight.png,right,0,e,001,2022-02-21_11h17.50.414,ANT,2021.2.3,Win32,59.97720866,0.648299999,,,1,12,60,26,1
1.2,left,1,,,,,,stim/centre.png,stim/neutralRight.png,left,180,e,001,2022-02-21_11h17.50.414,ANT,2021.2.3,Win32,59.97720866,0.3693,,,1,13,61,46,1
0.9,left,1,,,,,,stim/upper.png,stim/congLeft.png,left,0,e,001,2022-02-21_11h17.50.414,ANT,2021.2.3,Win32,59.97720866,0.4811,,,1,14,62,0,1
0.4,right,1,,,,,,stim/centre.png,stim/neutralRight.png,right,0,e,001,2022-02-21_11h17.50.414,ANT,2021.2.3,Win32,59.97720866,0.507,,,1,15,63,42,1
1.1,right,1,,,,,,stim/both.png,stim/incongLeft.png,right,180,e,001,2022-02-21_11h17.50.414,ANT,2021.2.3,Win32,59.97720866,0.569599999,,,1,16,64,21,1
0.8,left,1,,,,,,stim/blank.png,stim/neutralRight.png,left,180,e,001,2022-02-21_11h17.50.414,ANT,2021.2.3,Win32,59.97720866,0.349200001,,,1,17,65,47,1
0.4,right,1,,,,,,stim/blank.png,stim/neutralLeft.png,right,180,e,001,2022-02-21_11h17.50.414,ANT,2021.2.3,Win32,59.97720866,0.629599999,,,1,18,66,39,1
0.65,left,1,,,,,,stim/both.png,stim/incongLeft.png,left,0,e,001,2022-02-21_11h17.50.414,ANT,2021.2.3,Win32,59.97720866,0.7514,,,1,19,67,17,1
0.45,right,1,,,,,,stim/centre.png,stim/congLeft.png,right,180,e,001,2022-02-21_11h17.50.414,ANT,2021.2.3,Win32,59.97720866,0.4502,,,1,20,68,6,1
1.25,right,0,,,,,,stim/lower.png,stim/incongRight.png,left,180,e,001,2022-02-21_11h17.50.414,ANT,2021.2.3,Win32,59.97720866,0.5708,,,1,21,69,28,1
1.15,left,1,,,,,,stim/lower.png,stim/neutralRight.png,left,180,e,001,2022-02-21_11h17.50.414,ANT,2021.2.3,Win32,59.97720866,0.4633,,,1,22,70,44,1
1.25,right,1,,,,,,stim/upper.png,stim/incongRight.png,right,0,e,001,2022-02-21_11h17.50.414,ANT,2021.2.3,Win32,59.97720866,0.718,,,1,23,71,24,1
1.5,left,1,,,,,,stim/centre.png,stim/congLeft.png,left,0,e,001,2022-02-21_11h17.50.414,ANT,2021.2.3,Win32,59.97720866,0.430900001,,,1,24,72,2,1
1.2,right,1,,,,,,stim/upper.png,stim/congRight.png,right,0,e,001,2022-02-21_11h17.50.414,ANT,2021.2.3,Win32,59.97720866,0.414200001,,,1,25,73,8,1
1.5,left,1,,,,,,stim/centre.png,stim/neutralLeft.png,left,0,e,001,2022-02-21_11h17.50.414,ANT,2021.2.3,Win32,59.97720866,0.530599999,,,1,26,74,34,1
1.3,right,1,,,,,,stim/blank.png,stim/incongLeft.png,right,180,e,001,2022-02-21_11h17.50.414,ANT,2021.2.3,Win32,59.97720866,0.8068,,,1,27,75,23,1
0.7,left,1,,,,,,stim/both.png,stim/neutralRight.png,left,180,e,001,2022-02-21_11h17.50.414,ANT,2021.2.3,Win32,59.97720866,0.449,,,1,28,76,45,1
1.15,right,1,,,,,,stim/blank.png,stim/congRight.png,right,0,e,001,2022-02-21_11h17.50.414,ANT,2021.2.3,Win32,59.97720866,0.522400001,,,1,29,77,11,1
1.15,right,1,,,,,,stim/lower.png,stim/congLeft.png,right,180,e,001,2022-02-21_11h17.50.414,ANT,2021.2.3,Win32,59.97720866,0.5146,,,1,30,78,4,1
0.65,left,1,,,,,,stim/upper.png,stim/neutralLeft.png,left,0,e,001,2022-02-21_11h17.50.414,ANT,2021.2.3,Win32,59.97720866,0.418799999,,,1,31,79,32,1
0.6,left,1,,,,,,stim/centre.png,stim/congRight.png,left,180,e,001,2022-02-21_11h17.50.414,ANT,2021.2.3,Win32,59.97720866,0.6171,,,1,32,80,14,1
1.4,right,1,,,,,,stim/centre.png,stim/congRight.png,right,0,e,001,2022-02-21_11h17.50.414,ANT,2021.2.3,Win32,59.97720866,0.442200001,,,1,33,81,10,1
0.55,right,1,,,,,,stim/both.png,stim/congRight.png,right,0,e,001,2022-02-21_11h17.50.414,ANT,2021.2.3,Win32,59.97720866,0.466900001,,,1,34,82,9,1
0.85,left,0,,,,,,stim/lower.png,stim/incongLeft.png,right,180,e,001,2022-02-21_11h17.50.414,ANT,2021.2.3,Win32,59.97720866,0.3532,,,1,35,83,20,1
1.1,left,1,,,,,,stim/both.png,stim/congLeft.png,left,0,e,001,2022-02-21_11h17.50.414,ANT,2021.2.3,Win32,59.97720866,0.5477,,,1,36,84,1,1
0.95,left,1,,,,,,stim/blank.png,stim/incongLeft.png,left,0,e,001,2022-02-21_11h17.50.414,ANT,2021.2.3,Win32,59.97720866,0.509599999,,,1,37,85,19,1
1.3,left,1,,,,,,stim/centre.png,stim/incongLeft.png,left,0,e,001,2022-02-21_11h17.50.414,ANT,2021.2.3,Win32,59.97720866,0.505900001,,,1,38,86,18,1
0.65,left,1,,,,,,stim/both.png,stim/congRight.png,left,180,e,001,2022-02-21_11h17.50.414,ANT,2021.2.3,Win32,59.97720866,1.0878,,,1,39,87,13,1
0.4,left,0,,,,,,stim/centre.png,stim/incongLeft.png,right,180,e,001,2022-02-21_11h17.50.414,ANT,2021.2.3,Win32,59.97720866,0.319,,,1,40,88,22,1
1.4,right,1,,,,,,stim/blank.png,stim/congLeft.png,right,180,e,001,2022-02-21_11h17.50.414,ANT,2021.2.3,Win32,59.97720866,0.581,,,1,41,89,7,1
1.4,right,0,,,,,,stim/centre.png,stim/incongRight.png,left,180,e,001,2022-02-21_11h17.50.414,ANT,2021.2.3,Win32,59.97720866,0.3725,,,1,42,90,30,1
1.4,,0,,,,,,stim/blank.png,stim/incongRight.png,left,180,e,001,2022-02-21_11h17.50.414,ANT,2021.2.3,Win32,59.97720866,,,,1,43,91,31,1
