fixDuration,resp.keys,resp.corr,resp.rt,pracLoop.thisRepN,pracLoop.thisTrialN,pracLoop.thisN,pracLoop.thisIndex,pracLoop.ran,cue,tar,corrAns,targOrientation,participant,session,date,expName,psychopyVersion,OS,frameRate,instResp.keys,instResp.rt,mainLoop.thisRepN,mainLoop.thisTrialN,mainLoop.thisN,mainLoop.thisIndex,mainLoop.ran,blockLoop.thisRepN,blockLoop.thisTrialN,blockLoop.thisN,blockLoop.thisIndex,blockLoop.ran
1.35,left,1,0.7497,0,0,0,15,1,stim/blank.png,stim/congRight.png,left,180,,001,2022-03-17_13h59.24.713,ANT,2021.2.3,MacIntel,60.0024001,,,,,,,,,,,,
0.85,left,1,1.2332,0,1,1,17,1,stim/both.png,stim/incongLeft.png,left,0,,001,2022-03-17_13h59.24.713,ANT,2021.2.3,MacIntel,60.0024001,,,,,,,,,,,,
0.6,left,1,0.7351,0,2,2,19,1,stim/blank.png,stim/incongLeft.png,left,0,,001,2022-03-17_13h59.24.713,ANT,2021.2.3,MacIntel,60.0024001,,,,,,,,,,,,
1.4,left,1,0.9918,0,3,3,18,1,stim/centre.png,stim/incongLeft.png,left,0,,001,2022-03-17_13h59.24.713,ANT,2021.2.3,MacIntel,60.0024001,,,,,,,,,,,,
0.7,right,1,0.803,0,4,4,4,1,stim/lower.png,stim/congLeft.png,right,180,,001,2022-03-17_13h59.24.713,ANT,2021.2.3,MacIntel,60.0024001,,,,,,,,,,,,
0.95,right,1,0.6828,0,5,5,7,1,stim/blank.png,stim/congLeft.png,right,180,,001,2022-03-17_13h59.24.713,ANT,2021.2.3,MacIntel,60.0024001,,,,,,,,,,,,
0.9,left,1,1.0037,0,6,6,13,1,stim/both.png,stim/congRight.png,left,180,,001,2022-03-17_13h59.24.713,ANT,2021.2.3,MacIntel,60.0024001,,,,,,,,,,,,
0.65,left,1,0.8497,0,7,7,2,1,stim/centre.png,stim/congLeft.png,left,0,,001,2022-03-17_13h59.24.713,ANT,2021.2.3,MacIntel,60.0024001,,,,,,,,,,,,
1.1,left,1,0.6195,0,8,8,0,1,stim/upper.png,stim/congLeft.png,left,0,,001,2022-03-17_13h59.24.713,ANT,2021.2.3,MacIntel,60.0024001,,,,,,,,,,,,
1.4,right,1,0.8185,0,9,9,5,1,stim/both.png,stim/congLeft.png,right,180,,001,2022-03-17_13h59.24.713,ANT,2021.2.3,MacIntel,60.0024001,,,,,,,,,,,,
1.1,left,1,0.5342,0,10,10,14,1,stim/centre.png,stim/congRight.png,left,180,,001,2022-03-17_13h59.24.713,ANT,2021.2.3,MacIntel,60.0024001,,,,,,,,,,,,
0.95,right,1,1.1507,0,11,11,20,1,stim/lower.png,stim/incongLeft.png,right,180,,001,2022-03-17_13h59.24.713,ANT,2021.2.3,MacIntel,60.0024001,,,,,,,,,,,,
0.95,right,1,0.5385,0,12,12,11,1,stim/blank.png,stim/congRight.png,right,0,,001,2022-03-17_13h59.24.713,ANT,2021.2.3,MacIntel,60.0024001,,,,,,,,,,,,
1.45,right,1,1.0704,0,13,13,21,1,stim/both.png,stim/incongLeft.png,right,180,,001,2022-03-17_13h59.24.713,ANT,2021.2.3,MacIntel,60.0024001,,,,,,,,,,,,
0.65,right,1,0.6413,0,14,14,8,1,stim/upper.png,stim/congRight.png,right,0,,001,2022-03-17_13h59.24.713,ANT,2021.2.3,MacIntel,60.0024001,,,,,,,,,,,,
1.15,right,1,0.5561,0,15,15,9,1,stim/both.png,stim/congRight.png,right,0,,001,2022-03-17_13h59.24.713,ANT,2021.2.3,MacIntel,60.0024001,,,,,,,,,,,,
1.2,left,1,0.6854,0,16,16,16,1,stim/upper.png,stim/incongLeft.png,left,0,,001,2022-03-17_13h59.24.713,ANT,2021.2.3,MacIntel,60.0024001,,,,,,,,,,,,
0.95,left,1,0.4696,0,17,17,12,1,stim/lower.png,stim/congRight.png,left,180,,001,2022-03-17_13h59.24.713,ANT,2021.2.3,MacIntel,60.0024001,,,,,,,,,,,,
1.25,left,1,0.5222,0,18,18,1,1,stim/both.png,stim/congLeft.png,left,0,,001,2022-03-17_13h59.24.713,ANT,2021.2.3,MacIntel,60.0024001,,,,,,,,,,,,
1,right,1,0.8271,0,19,19,22,1,stim/centre.png,stim/incongLeft.png,right,180,,001,2022-03-17_13h59.24.713,ANT,2021.2.3,MacIntel,60.0024001,,,,,,,,,,,,
1.4,right,1,0.5853,0,20,20,6,1,stim/centre.png,stim/congLeft.png,right,180,,001,2022-03-17_13h59.24.713,ANT,2021.2.3,MacIntel,60.0024001,,,,,,,,,,,,
0.4,right,1,0.6014,0,21,21,10,1,stim/centre.png,stim/congRight.png,right,0,,001,2022-03-17_13h59.24.713,ANT,2021.2.3,MacIntel,60.0024001,,,,,,,,,,,,
0.8,right,1,0.7191,0,22,22,23,1,stim/blank.png,stim/incongLeft.png,right,180,,001,2022-03-17_13h59.24.713,ANT,2021.2.3,MacIntel,60.0024001,,,,,,,,,,,,
1.1,left,1,0.5541,0,23,23,3,1,stim/blank.png,stim/congLeft.png,left,0,,001,2022-03-17_13h59.24.713,ANT,2021.2.3,MacIntel,60.0024001,,,,,,,,,,,,
0.85,left,1,0.5354,,,,,,stim/centre.png,stim/congRight.png,left,180,,001,2022-03-17_13h59.24.713,ANT,2021.2.3,MacIntel,60.0024001,space,6.6695,0,0,0,14,1,,,,,
1.45,right,1,0.5466,,,,,,stim/blank.png,stim/congLeft.png,right,180,,001,2022-03-17_13h59.24.713,ANT,2021.2.3,MacIntel,60.0024001,,,0,1,1,7,1,,,,,
0.8,right,1,0.5375,,,,,,stim/lower.png,stim/congLeft.png,right,180,,001,2022-03-17_13h59.24.713,ANT,2021.2.3,MacIntel,60.0024001,,,0,2,2,4,1,,,,,
1.15,left,1,0.5643,,,,,,stim/blank.png,stim/congLeft.png,left,0,,001,2022-03-17_13h59.24.713,ANT,2021.2.3,MacIntel,60.0024001,,,0,3,3,3,1,,,,,
1.15,right,1,0.8191,,,,,,stim/blank.png,stim/incongLeft.png,right,180,,001,2022-03-17_13h59.24.713,ANT,2021.2.3,MacIntel,60.0024001,,,0,4,4,23,1,,,,,
1.1,left,1,0.4645,,,,,,stim/blank.png,stim/congRight.png,left,180,,001,2022-03-17_13h59.24.713,ANT,2021.2.3,MacIntel,60.0024001,,,0,5,5,15,1,,,,,
0.6,left,1,0.6014,,,,,,stim/both.png,stim/neutralRight.png,left,180,,001,2022-03-17_13h59.24.713,ANT,2021.2.3,MacIntel,60.0024001,,,0,6,6,45,1,,,,,
0.9,left,1,0.4757,,,,,,stim/upper.png,stim/congLeft.png,left,0,,001,2022-03-17_13h59.24.713,ANT,2021.2.3,MacIntel,60.0024001,,,0,7,7,0,1,,,,,
0.4,right,1,0.7593,,,,,,stim/centre.png,stim/incongRight.png,right,0,,001,2022-03-17_13h59.24.713,ANT,2021.2.3,MacIntel,60.0024001,,,0,8,8,26,1,,,,,
0.75,left,1,0.601,,,,,,stim/both.png,stim/neutralLeft.png,left,0,,001,2022-03-17_13h59.24.713,ANT,2021.2.3,MacIntel,60.0024001,,,0,9,9,33,1,,,,,
0.6,right,1,0.72,,,,,,stim/both.png,stim/neutralLeft.png,right,180,,001,2022-03-17_13h59.24.713,ANT,2021.2.3,MacIntel,60.0024001,,,0,10,10,37,1,,,,,
1.45,right,1,0.5848,,,,,,stim/both.png,stim/congLeft.png,right,180,,001,2022-03-17_13h59.24.713,ANT,2021.2.3,MacIntel,60.0024001,,,0,11,11,5,1,,,,,
0.5,left,1,0.6749,,,,,,stim/both.png,stim/congRight.png,left,180,,001,2022-03-17_13h59.24.713,ANT,2021.2.3,MacIntel,60.0024001,,,0,12,12,13,1,,,,,
1.2,left,1,0.5019,,,,,,stim/both.png,stim/congLeft.png,left,0,,001,2022-03-17_13h59.24.713,ANT,2021.2.3,MacIntel,60.0024001,,,0,13,13,1,1,,,,,
0.55,right,1,0.8332,,,,,,stim/centre.png,stim/incongLeft.png,right,180,,001,2022-03-17_13h59.24.713,ANT,2021.2.3,MacIntel,60.0024001,,,0,14,14,22,1,,,,,
0.5,right,1,0.5059,,,,,,stim/blank.png,stim/neutralLeft.png,right,180,,001,2022-03-17_13h59.24.713,ANT,2021.2.3,MacIntel,60.0024001,,,0,15,15,39,1,,,,,
0.55,left,1,0.6871,,,,,,stim/both.png,stim/incongRight.png,left,180,,001,2022-03-17_13h59.24.713,ANT,2021.2.3,MacIntel,60.0024001,,,0,16,16,29,1,,,,,
1.3,right,1,0.7366,,,,,,stim/upper.png,stim/incongRight.png,right,0,,001,2022-03-17_13h59.24.713,ANT,2021.2.3,MacIntel,60.0024001,,,0,17,17,24,1,,,,,
0.7,left,1,0.701,,,,,,stim/blank.png,stim/neutralLeft.png,left,0,,001,2022-03-17_13h59.24.713,ANT,2021.2.3,MacIntel,60.0024001,,,0,18,18,35,1,,,,,
0.6,right,1,0.5824,,,,,,stim/upper.png,stim/neutralRight.png,right,0,,001,2022-03-17_13h59.24.713,ANT,2021.2.3,MacIntel,60.0024001,,,0,19,19,40,1,,,,,
0.55,left,1,0.5357,,,,,,stim/lower.png,stim/neutralRight.png,left,180,,001,2022-03-17_13h59.24.713,ANT,2021.2.3,MacIntel,60.0024001,,,0,20,20,44,1,,,,,
1.15,left,1,0.5258,,,,,,stim/centre.png,stim/neutralLeft.png,left,0,,001,2022-03-17_13h59.24.713,ANT,2021.2.3,MacIntel,60.0024001,,,0,21,21,34,1,,,,,
0.45,right,1,0.5347,,,,,,stim/both.png,stim/neutralRight.png,right,0,,001,2022-03-17_13h59.24.713,ANT,2021.2.3,MacIntel,60.0024001,,,0,22,22,41,1,,,,,
1.25,left,1,0.7193,,,,,,stim/blank.png,stim/incongLeft.png,left,0,,001,2022-03-17_13h59.24.713,ANT,2021.2.3,MacIntel,60.0024001,,,0,23,23,19,1,,,,,
1.05,left,1,0.5505,,,,,,stim/lower.png,stim/incongRight.png,left,180,,001,2022-03-17_13h59.24.713,ANT,2021.2.3,MacIntel,60.0024001,,,0,24,24,28,1,,,,,
0.85,right,1,0.5646,,,,,,stim/centre.png,stim/congLeft.png,right,180,,001,2022-03-17_13h59.24.713,ANT,2021.2.3,MacIntel,60.0024001,,,0,25,25,6,1,,,,,
1.25,left,1,0.6019,,,,,,stim/centre.png,stim/incongLeft.png,left,0,,001,2022-03-17_13h59.24.713,ANT,2021.2.3,MacIntel,60.0024001,,,0,26,26,18,1,,,,,
0.9,right,1,0.6349,,,,,,stim/centre.png,stim/congRight.png,right,0,,001,2022-03-17_13h59.24.713,ANT,2021.2.3,MacIntel,60.0024001,,,0,27,27,10,1,,,,,
1.15,left,1,0.5215,,,,,,stim/blank.png,stim/neutralRight.png,left,180,,001,2022-03-17_13h59.24.713,ANT,2021.2.3,MacIntel,60.0024001,,,0,28,28,47,1,,,,,
1.15,left,1,0.4773,,,,,,stim/centre.png,stim/neutralRight.png,left,180,,001,2022-03-17_13h59.24.713,ANT,2021.2.3,MacIntel,60.0024001,,,0,29,29,46,1,,,,,
1.25,right,1,0.5023,,,,,,stim/lower.png,stim/neutralLeft.png,right,180,,001,2022-03-17_13h59.24.713,ANT,2021.2.3,MacIntel,60.0024001,,,0,30,30,36,1,,,,,
1,right,1,0.5463,,,,,,stim/upper.png,stim/congRight.png,right,0,,001,2022-03-17_13h59.24.713,ANT,2021.2.3,MacIntel,60.0024001,,,0,31,31,8,1,,,,,
1.4,left,1,0.6633,,,,,,stim/both.png,stim/incongLeft.png,left,0,,001,2022-03-17_13h59.24.713,ANT,2021.2.3,MacIntel,60.0024001,,,0,32,32,17,1,,,,,
0.6,right,1,0.6464,,,,,,stim/blank.png,stim/incongRight.png,right,0,,001,2022-03-17_13h59.24.713,ANT,2021.2.3,MacIntel,60.0024001,,,0,33,33,27,1,,,,,
0.7,right,1,0.6966,,,,,,stim/both.png,stim/incongRight.png,right,0,,001,2022-03-17_13h59.24.713,ANT,2021.2.3,MacIntel,60.0024001,,,0,34,34,25,1,,,,,
0.6,right,1,0.7132,,,,,,stim/lower.png,stim/incongLeft.png,right,180,,001,2022-03-17_13h59.24.713,ANT,2021.2.3,MacIntel,60.0024001,,,0,35,35,20,1,,,,,
1.1,left,1,0.5106,,,,,,stim/centre.png,stim/congLeft.png,left,0,,001,2022-03-17_13h59.24.713,ANT,2021.2.3,MacIntel,60.0024001,,,0,36,36,2,1,,,,,
0.85,right,1,0.5033,,,,,,stim/both.png,stim/congRight.png,right,0,,001,2022-03-17_13h59.24.713,ANT,2021.2.3,MacIntel,60.0024001,,,0,37,37,9,1,,,,,
1.15,left,1,0.503,,,,,,stim/lower.png,stim/congRight.png,left,180,,001,2022-03-17_13h59.24.713,ANT,2021.2.3,MacIntel,60.0024001,,,0,38,38,12,1,,,,,
0.45,left,1,0.4666,,,,,,stim/upper.png,stim/neutralLeft.png,left,0,,001,2022-03-17_13h59.24.713,ANT,2021.2.3,MacIntel,60.0024001,,,0,39,39,32,1,,,,,
0.55,right,1,0.4913,,,,,,stim/centre.png,stim/neutralLeft.png,right,180,,001,2022-03-17_13h59.24.713,ANT,2021.2.3,MacIntel,60.0024001,,,0,40,40,38,1,,,,,
1.55,right,1,0.5673,,,,,,stim/blank.png,stim/congRight.png,right,0,,001,2022-03-17_13h59.24.713,ANT,2021.2.3,MacIntel,60.0024001,,,0,41,41,11,1,,,,,
0.7,right,1,0.5017,,,,,,stim/blank.png,stim/neutralRight.png,right,0,,001,2022-03-17_13h59.24.713,ANT,2021.2.3,MacIntel,60.0024001,,,0,42,42,43,1,,,,,
1.05,left,1,0.5846,,,,,,stim/centre.png,stim/incongRight.png,left,180,,001,2022-03-17_13h59.24.713,ANT,2021.2.3,MacIntel,60.0024001,,,0,43,43,30,1,,,,,
1,right,1,0.7714,,,,,,stim/both.png,stim/incongLeft.png,right,180,,001,2022-03-17_13h59.24.713,ANT,2021.2.3,MacIntel,60.0024001,,,0,44,44,21,1,,,,,
0.85,left,1,0.7418,,,,,,stim/blank.png,stim/incongRight.png,left,180,,001,2022-03-17_13h59.24.713,ANT,2021.2.3,MacIntel,60.0024001,,,0,45,45,31,1,,,,,
1.3,right,1,0.6858,,,,,,stim/centre.png,stim/neutralRight.png,right,0,,001,2022-03-17_13h59.24.713,ANT,2021.2.3,MacIntel,60.0024001,,,0,46,46,42,1,,,,,
0.5,left,1,0.5848,,,,,,stim/upper.png,stim/incongLeft.png,left,0,,001,2022-03-17_13h59.24.713,ANT,2021.2.3,MacIntel,60.0024001,,,0,47,47,16,1,,,,,
1.3,left,1,0.6701,,,,,,stim/blank.png,stim/neutralRight.png,left,180,,001,2022-03-17_13h59.24.713,ANT,2021.2.3,MacIntel,60.0024001,,,1,0,48,47,1,,,,,
1,right,1,0.5849,,,,,,stim/centre.png,stim/neutralLeft.png,right,180,,001,2022-03-17_13h59.24.713,ANT,2021.2.3,MacIntel,60.0024001,,,1,1,49,38,1,,,,,
1.55,right,1,0.4928,,,,,,stim/upper.png,stim/neutralRight.png,right,0,,001,2022-03-17_13h59.24.713,ANT,2021.2.3,MacIntel,60.0024001,,,1,2,50,40,1,,,,,
0.85,left,1,0.45,,,,,,stim/both.png,stim/congRight.png,left,180,,001,2022-03-17_13h59.24.713,ANT,2021.2.3,MacIntel,60.0024001,,,1,3,51,13,1,,,,,
0.45,left,1,0.4415,,,,,,stim/upper.png,stim/neutralLeft.png,left,0,,001,2022-03-17_13h59.24.713,ANT,2021.2.3,MacIntel,60.0024001,,,1,4,52,32,1,,,,,
1.05,left,0,0.4677,,,,,,stim/blank.png,stim/incongRight.png,right,0,,001,2022-03-17_13h59.24.713,ANT,2021.2.3,MacIntel,60.0024001,,,1,5,53,27,1,,,,,
1.45,left,1,0.601,,,,,,stim/centre.png,stim/neutralLeft.png,left,0,,001,2022-03-17_13h59.24.713,ANT,2021.2.3,MacIntel,60.0024001,,,1,6,54,34,1,,,,,
0.7,right,1,0.6036,,,,,,stim/blank.png,stim/congLeft.png,right,180,,001,2022-03-17_13h59.24.713,ANT,2021.2.3,MacIntel,60.0024001,,,1,7,55,7,1,,,,,
0.6,right,1,0.474,,,,,,stim/centre.png,stim/congRight.png,right,0,,001,2022-03-17_13h59.24.713,ANT,2021.2.3,MacIntel,60.0024001,,,1,8,56,10,1,,,,,
0.65,left,1,0.577,,,,,,stim/centre.png,stim/neutralRight.png,left,180,,001,2022-03-17_13h59.24.713,ANT,2021.2.3,MacIntel,60.0024001,,,1,9,57,46,1,,,,,
1.1,right,1,0.6507,,,,,,stim/blank.png,stim/neutralRight.png,right,0,,001,2022-03-17_13h59.24.713,ANT,2021.2.3,MacIntel,60.0024001,,,1,10,58,43,1,,,,,
0.8,left,1,0.8016,,,,,,stim/both.png,stim/incongRight.png,left,180,,001,2022-03-17_13h59.24.713,ANT,2021.2.3,MacIntel,60.0024001,,,1,11,59,29,1,,,,,
0.8,right,1,0.6994,,,,,,stim/both.png,stim/neutralLeft.png,right,180,,001,2022-03-17_13h59.24.713,ANT,2021.2.3,MacIntel,60.0024001,,,1,12,60,37,1,,,,,
1.5,left,1,0.9018,,,,,,stim/blank.png,stim/incongRight.png,left,180,,001,2022-03-17_13h59.24.713,ANT,2021.2.3,MacIntel,60.0024001,,,1,13,61,31,1,,,,,
1.55,left,1,0.6647,,,,,,stim/centre.png,stim/incongLeft.png,left,0,,001,2022-03-17_13h59.24.713,ANT,2021.2.3,MacIntel,60.0024001,,,1,14,62,18,1,,,,,
1,left,1,0.5142,,,,,,stim/lower.png,stim/congRight.png,left,180,,001,2022-03-17_13h59.24.713,ANT,2021.2.3,MacIntel,60.0024001,,,1,15,63,12,1,,,,,
0.5,left,1,0.6511,,,,,,stim/blank.png,stim/incongLeft.png,left,0,,001,2022-03-17_13h59.24.713,ANT,2021.2.3,MacIntel,60.0024001,,,1,16,64,19,1,,,,,
0.55,right,1,0.5174,,,,,,stim/centre.png,stim/neutralRight.png,right,0,,001,2022-03-17_13h59.24.713,ANT,2021.2.3,MacIntel,60.0024001,,,1,17,65,42,1,,,,,
0.75,right,1,0.8017,,,,,,stim/centre.png,stim/incongRight.png,right,0,,001,2022-03-17_13h59.24.713,ANT,2021.2.3,MacIntel,60.0024001,,,1,18,66,26,1,,,,,
0.55,left,1,0.5333,,,,,,stim/upper.png,stim/congLeft.png,left,0,,001,2022-03-17_13h59.24.713,ANT,2021.2.3,MacIntel,60.0024001,,,1,19,67,0,1,,,,,
1.25,left,1,0.5347,,,,,,stim/both.png,stim/neutralLeft.png,left,0,,001,2022-03-17_13h59.24.713,ANT,2021.2.3,MacIntel,60.0024001,,,1,20,68,33,1,,,,,
0.45,left,1,0.5927,,,,,,stim/centre.png,stim/congRight.png,left,180,,001,2022-03-17_13h59.24.713,ANT,2021.2.3,MacIntel,60.0024001,,,1,21,69,14,1,,,,,
0.7,left,1,0.6499,,,,,,stim/both.png,stim/incongLeft.png,left,0,,001,2022-03-17_13h59.24.713,ANT,2021.2.3,MacIntel,60.0024001,,,1,22,70,17,1,,,,,
0.55,left,1,0.5377,,,,,,stim/lower.png,stim/neutralRight.png,left,180,,001,2022-03-17_13h59.24.713,ANT,2021.2.3,MacIntel,60.0024001,,,1,23,71,44,1,,,,,
0.7,left,1,0.5681,,,,,,stim/upper.png,stim/incongLeft.png,left,0,,001,2022-03-17_13h59.24.713,ANT,2021.2.3,MacIntel,60.0024001,,,1,24,72,16,1,,,,,
1.15,right,1,0.8512,,,,,,stim/both.png,stim/incongLeft.png,right,180,,001,2022-03-17_13h59.24.713,ANT,2021.2.3,MacIntel,60.0024001,,,1,25,73,21,1,,,,,
1.5,right,1,0.5502,,,,,,stim/both.png,stim/neutralRight.png,right,0,,001,2022-03-17_13h59.24.713,ANT,2021.2.3,MacIntel,60.0024001,,,1,26,74,41,1,,,,,
1.2,right,1,0.6016,,,,,,stim/lower.png,stim/neutralLeft.png,right,180,,001,2022-03-17_13h59.24.713,ANT,2021.2.3,MacIntel,60.0024001,,,1,27,75,36,1,,,,,
0.55,left,1,0.5755,,,,,,stim/blank.png,stim/congLeft.png,left,0,,001,2022-03-17_13h59.24.713,ANT,2021.2.3,MacIntel,60.0024001,,,1,28,76,3,1,,,,,
1.15,right,1,0.6849,,,,,,stim/lower.png,stim/incongLeft.png,right,180,,001,2022-03-17_13h59.24.713,ANT,2021.2.3,MacIntel,60.0024001,,,1,29,77,20,1,,,,,
0.65,right,1,0.8385,,,,,,stim/blank.png,stim/incongLeft.png,right,180,,001,2022-03-17_13h59.24.713,ANT,2021.2.3,MacIntel,60.0024001,,,1,30,78,23,1,,,,,
0.95,right,1,0.5508,,,,,,stim/upper.png,stim/congRight.png,right,0,,001,2022-03-17_13h59.24.713,ANT,2021.2.3,MacIntel,60.0024001,,,1,31,79,8,1,,,,,
0.9,right,1,0.8,,,,,,stim/both.png,stim/incongRight.png,right,0,,001,2022-03-17_13h59.24.713,ANT,2021.2.3,MacIntel,60.0024001,,,1,32,80,25,1,,,,,
1.4,left,1,0.5873,,,,,,stim/blank.png,stim/neutralLeft.png,left,0,,001,2022-03-17_13h59.24.713,ANT,2021.2.3,MacIntel,60.0024001,,,1,33,81,35,1,,,,,
0.6,left,1,0.4992,,,,,,stim/centre.png,stim/congLeft.png,left,0,,001,2022-03-17_13h59.24.713,ANT,2021.2.3,MacIntel,60.0024001,,,1,34,82,2,1,,,,,
0.95,right,1,0.5685,,,,,,stim/blank.png,stim/congRight.png,right,0,,001,2022-03-17_13h59.24.713,ANT,2021.2.3,MacIntel,60.0024001,,,1,35,83,11,1,,,,,
0.5,right,1,0.5419,,,,,,stim/lower.png,stim/congLeft.png,right,180,,001,2022-03-17_13h59.24.713,ANT,2021.2.3,MacIntel,60.0024001,,,1,36,84,4,1,,,,,
1.3,right,1,0.4445,,,,,,stim/blank.png,stim/neutralLeft.png,right,180,,001,2022-03-17_13h59.24.713,ANT,2021.2.3,MacIntel,60.0024001,,,1,37,85,39,1,,,,,
0.95,left,1,0.4429,,,,,,stim/both.png,stim/neutralRight.png,left,180,,001,2022-03-17_13h59.24.713,ANT,2021.2.3,MacIntel,60.0024001,,,1,38,86,45,1,,,,,
1.15,left,1,0.5019,,,,,,stim/blank.png,stim/congRight.png,left,180,,001,2022-03-17_13h59.24.713,ANT,2021.2.3,MacIntel,60.0024001,,,1,39,87,15,1,,,,,
1.15,left,0,0.4105,,,,,,stim/upper.png,stim/incongRight.png,right,0,,001,2022-03-17_13h59.24.713,ANT,2021.2.3,MacIntel,60.0024001,,,1,40,88,24,1,,,,,
1.4,right,1,0.6149,,,,,,stim/both.png,stim/congLeft.png,right,180,,001,2022-03-17_13h59.24.713,ANT,2021.2.3,MacIntel,60.0024001,,,1,41,89,5,1,,,,,
0.4,left,1,0.8351,,,,,,stim/lower.png,stim/incongRight.png,left,180,,001,2022-03-17_13h59.24.713,ANT,2021.2.3,MacIntel,60.0024001,,,1,42,90,28,1,,,,,
1.05,right,1,0.5193,,,,,,stim/centre.png,stim/congLeft.png,right,180,,001,2022-03-17_13h59.24.713,ANT,2021.2.3,MacIntel,60.0024001,,,1,43,91,6,1,,,,,
0.75,right,1,0.9665,,,,,,stim/centre.png,stim/incongLeft.png,right,180,,001,2022-03-17_13h59.24.713,ANT,2021.2.3,MacIntel,60.0024001,,,1,44,92,22,1,,,,,
1.15,left,1,0.8659,,,,,,stim/centre.png,stim/incongRight.png,left,180,,001,2022-03-17_13h59.24.713,ANT,2021.2.3,MacIntel,60.0024001,,,1,45,93,30,1,,,,,
1.45,left,1,0.54,,,,,,stim/both.png,stim/congLeft.png,left,0,,001,2022-03-17_13h59.24.713,ANT,2021.2.3,MacIntel,60.0024001,,,1,46,94,1,1,,,,,
1.05,right,1,0.5438,,,,,,stim/both.png,stim/congRight.png,right,0,,001,2022-03-17_13h59.24.713,ANT,2021.2.3,MacIntel,60.0024001,,,1,47,95,9,1,,,,,
,,,,,,,,,,,,,,001,2022-03-17_13h59.24.713,ANT,2021.2.3,MacIntel,60.0024001,,,,,,,,0,0,0,0,1
0.6,right,1,0.5685,,,,,,stim/both.png,stim/congLeft.png,right,180,,001,2022-03-17_13h59.24.713,ANT,2021.2.3,MacIntel,60.0024001,,,0,0,0,5,1,,,,,
1,right,1,0.8005,,,,,,stim/both.png,stim/incongLeft.png,right,180,,001,2022-03-17_13h59.24.713,ANT,2021.2.3,MacIntel,60.0024001,,,0,1,1,21,1,,,,,
1.15,right,1,0.7746,,,,,,stim/centre.png,stim/incongLeft.png,right,180,,001,2022-03-17_13h59.24.713,ANT,2021.2.3,MacIntel,60.0024001,,,0,2,2,22,1,,,,,
1.05,right,1,0.4512,,,,,,stim/lower.png,stim/congLeft.png,right,180,,001,2022-03-17_13h59.24.713,ANT,2021.2.3,MacIntel,60.0024001,,,0,3,3,4,1,,,,,
0.7,left,1,0.4989,,,,,,stim/both.png,stim/neutralLeft.png,left,0,,001,2022-03-17_13h59.24.713,ANT,2021.2.3,MacIntel,60.0024001,,,0,4,4,33,1,,,,,
1.55,right,1,0.4515,,,,,,stim/upper.png,stim/neutralRight.png,right,0,,001,2022-03-17_13h59.24.713,ANT,2021.2.3,MacIntel,60.0024001,,,0,5,5,40,1,,,,,
1.2,right,1,0.7211,,,,,,stim/both.png,stim/incongRight.png,right,0,,001,2022-03-17_13h59.24.713,ANT,2021.2.3,MacIntel,60.0024001,,,0,6,6,25,1,,,,,
0.5,right,1,0.5195,,,,,,stim/both.png,stim/neutralLeft.png,right,180,,001,2022-03-17_13h59.24.713,ANT,2021.2.3,MacIntel,60.0024001,,,0,7,7,37,1,,,,,
0.7,right,1,0.6555,,,,,,stim/centre.png,stim/incongRight.png,right,0,,001,2022-03-17_13h59.24.713,ANT,2021.2.3,MacIntel,60.0024001,,,0,8,8,26,1,,,,,
0.65,left,1,0.659,,,,,,stim/both.png,stim/incongLeft.png,left,0,,001,2022-03-17_13h59.24.713,ANT,2021.2.3,MacIntel,60.0024001,,,0,9,9,17,1,,,,,
0.45,right,1,0.5189,,,,,,stim/centre.png,stim/congRight.png,right,0,,001,2022-03-17_13h59.24.713,ANT,2021.2.3,MacIntel,60.0024001,,,0,10,10,10,1,,,,,
1.2,left,1,0.5315,,,,,,stim/centre.png,stim/congLeft.png,left,0,,001,2022-03-17_13h59.24.713,ANT,2021.2.3,MacIntel,60.0024001,,,0,11,11,2,1,,,,,
1.3,left,1,0.5385,,,,,,stim/both.png,stim/congLeft.png,left,0,,001,2022-03-17_13h59.24.713,ANT,2021.2.3,MacIntel,60.0024001,,,0,12,12,1,1,,,,,
1.25,left,1,0.6529,,,,,,stim/centre.png,stim/incongLeft.png,left,0,,001,2022-03-17_13h59.24.713,ANT,2021.2.3,MacIntel,60.0024001,,,0,13,13,18,1,,,,,
1.2,left,1,0.5684,,,,,,stim/centre.png,stim/neutralRight.png,left,180,,001,2022-03-17_13h59.24.713,ANT,2021.2.3,MacIntel,60.0024001,,,0,14,14,46,1,,,,,
0.5,left,1,0.49,,,,,,stim/blank.png,stim/congLeft.png,left,0,,001,2022-03-17_13h59.24.713,ANT,2021.2.3,MacIntel,60.0024001,,,0,15,15,3,1,,,,,
0.8,left,1,0.7073,,,,,,stim/centre.png,stim/incongRight.png,left,180,,001,2022-03-17_13h59.24.713,ANT,2021.2.3,MacIntel,60.0024001,,,0,16,16,30,1,,,,,
1.2,right,1,0.5887,,,,,,stim/lower.png,stim/neutralLeft.png,right,180,,001,2022-03-17_13h59.24.713,ANT,2021.2.3,MacIntel,60.0024001,,,0,17,17,36,1,,,,,
0.95,left,1,0.5211,,,,,,stim/blank.png,stim/neutralLeft.png,left,0,,001,2022-03-17_13h59.24.713,ANT,2021.2.3,MacIntel,60.0024001,,,0,18,18,35,1,,,,,
0.45,right,1,0.5189,,,,,,stim/blank.png,stim/congLeft.png,right,180,,001,2022-03-17_13h59.24.713,ANT,2021.2.3,MacIntel,60.0024001,,,0,19,19,7,1,,,,,
1.45,right,1,0.4841,,,,,,stim/centre.png,stim/neutralLeft.png,right,180,,001,2022-03-17_13h59.24.713,ANT,2021.2.3,MacIntel,60.0024001,,,0,20,20,38,1,,,,,
1.3,right,1,0.7044,,,,,,stim/lower.png,stim/incongLeft.png,right,180,,001,2022-03-17_13h59.24.713,ANT,2021.2.3,MacIntel,60.0024001,,,0,21,21,20,1,,,,,
0.8,left,1,0.4584,,,,,,stim/lower.png,stim/congRight.png,left,180,,001,2022-03-17_13h59.24.713,ANT,2021.2.3,MacIntel,60.0024001,,,0,22,22,12,1,,,,,
1.2,left,1,0.5891,,,,,,stim/centre.png,stim/neutralLeft.png,left,0,,001,2022-03-17_13h59.24.713,ANT,2021.2.3,MacIntel,60.0024001,,,0,23,23,34,1,,,,,
0.55,right,1,0.5164,,,,,,stim/centre.png,stim/neutralRight.png,right,0,,001,2022-03-17_13h59.24.713,ANT,2021.2.3,MacIntel,60.0024001,,,0,24,24,42,1,,,,,
0.6,left,1,0.7091,,,,,,stim/blank.png,stim/incongLeft.png,left,0,,001,2022-03-17_13h59.24.713,ANT,2021.2.3,MacIntel,60.0024001,,,0,25,25,19,1,,,,,
1.45,left,1,0.4846,,,,,,stim/blank.png,stim/neutralRight.png,left,180,,001,2022-03-17_13h59.24.713,ANT,2021.2.3,MacIntel,60.0024001,,,0,26,26,47,1,,,,,
0.6,left,1,0.4704,,,,,,stim/centre.png,stim/congRight.png,left,180,,001,2022-03-17_13h59.24.713,ANT,2021.2.3,MacIntel,60.0024001,,,0,27,27,14,1,,,,,
0.9,left,1,0.5676,,,,,,stim/blank.png,stim/congRight.png,left,180,,001,2022-03-17_13h59.24.713,ANT,2021.2.3,MacIntel,60.0024001,,,0,28,28,15,1,,,,,
1.05,left,1,0.6084,,,,,,stim/lower.png,stim/incongRight.png,left,180,,001,2022-03-17_13h59.24.713,ANT,2021.2.3,MacIntel,60.0024001,,,0,29,29,28,1,,,,,
0.75,right,1,0.5277,,,,,,stim/blank.png,stim/neutralRight.png,right,0,,001,2022-03-17_13h59.24.713,ANT,2021.2.3,MacIntel,60.0024001,,,0,30,30,43,1,,,,,
0.4,right,0,0.4184,,,,,,stim/upper.png,stim/incongLeft.png,left,0,,001,2022-03-17_13h59.24.713,ANT,2021.2.3,MacIntel,60.0024001,,,0,31,31,16,1,,,,,
0.55,right,1,0.7976,,,,,,stim/blank.png,stim/incongRight.png,right,0,,001,2022-03-17_13h59.24.713,ANT,2021.2.3,MacIntel,60.0024001,,,0,32,32,27,1,,,,,
1.45,right,1,0.5608,,,,,,stim/both.png,stim/congRight.png,right,0,,001,2022-03-17_13h59.24.713,ANT,2021.2.3,MacIntel,60.0024001,,,0,33,33,9,1,,,,,
1.25,right,1,0.6886,,,,,,stim/blank.png,stim/incongLeft.png,right,180,,001,2022-03-17_13h59.24.713,ANT,2021.2.3,MacIntel,60.0024001,,,0,34,34,23,1,,,,,
1.25,right,1,0.4865,,,,,,stim/blank.png,stim/neutralLeft.png,right,180,,001,2022-03-17_13h59.24.713,ANT,2021.2.3,MacIntel,60.0024001,,,0,35,35,39,1,,,,,
1.5,right,1,0.5339,,,,,,stim/centre.png,stim/congLeft.png,right,180,,001,2022-03-17_13h59.24.713,ANT,2021.2.3,MacIntel,60.0024001,,,0,36,36,6,1,,,,,
1.15,left,1,0.5353,,,,,,stim/upper.png,stim/congLeft.png,left,0,,001,2022-03-17_13h59.24.713,ANT,2021.2.3,MacIntel,60.0024001,,,0,37,37,0,1,,,,,
0.55,left,1,0.8349,,,,,,stim/both.png,stim/incongRight.png,left,180,,001,2022-03-17_13h59.24.713,ANT,2021.2.3,MacIntel,60.0024001,,,0,38,38,29,1,,,,,
0.65,left,1,0.4548,,,,,,stim/upper.png,stim/neutralLeft.png,left,0,,001,2022-03-17_13h59.24.713,ANT,2021.2.3,MacIntel,60.0024001,,,0,39,39,32,1,,,,,
1.05,right,1,0.4745,,,,,,stim/upper.png,stim/congRight.png,right,0,,001,2022-03-17_13h59.24.713,ANT,2021.2.3,MacIntel,60.0024001,,,0,40,40,8,1,,,,,
1.3,left,1,0.7161,,,,,,stim/blank.png,stim/incongRight.png,left,180,,001,2022-03-17_13h59.24.713,ANT,2021.2.3,MacIntel,60.0024001,,,0,41,41,31,1,,,,,
1.45,left,1,0.5241,,,,,,stim/both.png,stim/congRight.png,left,180,,001,2022-03-17_13h59.24.713,ANT,2021.2.3,MacIntel,60.0024001,,,0,42,42,13,1,,,,,
1.45,left,1,0.4756,,,,,,stim/both.png,stim/neutralRight.png,left,180,,001,2022-03-17_13h59.24.713,ANT,2021.2.3,MacIntel,60.0024001,,,0,43,43,45,1,,,,,
0.45,right,1,0.5008,,,,,,stim/blank.png,stim/congRight.png,right,0,,001,2022-03-17_13h59.24.713,ANT,2021.2.3,MacIntel,60.0024001,,,0,44,44,11,1,,,,,
0.8,right,1,0.4686,,,,,,stim/both.png,stim/neutralRight.png,right,0,,001,2022-03-17_13h59.24.713,ANT,2021.2.3,MacIntel,60.0024001,,,0,45,45,41,1,,,,,
0.55,left,1,0.4707,,,,,,stim/lower.png,stim/neutralRight.png,left,180,,001,2022-03-17_13h59.24.713,ANT,2021.2.3,MacIntel,60.0024001,,,0,46,46,44,1,,,,,
1.05,right,1,0.6663,,,,,,stim/upper.png,stim/incongRight.png,right,0,,001,2022-03-17_13h59.24.713,ANT,2021.2.3,MacIntel,60.0024001,,,0,47,47,24,1,,,,,
1.15,left,1,0.6273,,,,,,stim/upper.png,stim/incongLeft.png,left,0,,001,2022-03-17_13h59.24.713,ANT,2021.2.3,MacIntel,60.0024001,,,1,0,48,16,1,,,,,
0.55,right,1,0.5602,,,,,,stim/both.png,stim/neutralRight.png,right,0,,001,2022-03-17_13h59.24.713,ANT,2021.2.3,MacIntel,60.0024001,,,1,1,49,41,1,,,,,
1.25,left,1,0.6526,,,,,,stim/centre.png,stim/incongRight.png,left,180,,001,2022-03-17_13h59.24.713,ANT,2021.2.3,MacIntel,60.0024001,,,1,2,50,30,1,,,,,
1.55,left,1,0.5265,,,,,,stim/centre.png,stim/neutralRight.png,left,180,,001,2022-03-17_13h59.24.713,ANT,2021.2.3,MacIntel,60.0024001,,,1,3,51,46,1,,,,,
1.3,right,1,0.4352,,,,,,stim/upper.png,stim/neutralRight.png,right,0,,001,2022-03-17_13h59.24.713,ANT,2021.2.3,MacIntel,60.0024001,,,1,4,52,40,1,,,,,
0.85,left,0,0.4341,,,,,,stim/centre.png,stim/incongLeft.png,right,180,,001,2022-03-17_13h59.24.713,ANT,2021.2.3,MacIntel,60.0024001,,,1,5,53,22,1,,,,,
1.15,right,1,0.5505,,,,,,stim/centre.png,stim/congLeft.png,right,180,,001,2022-03-17_13h59.24.713,ANT,2021.2.3,MacIntel,60.0024001,,,1,6,54,6,1,,,,,
1.4,right,1,0.529,,,,,,stim/blank.png,stim/congLeft.png,right,180,,001,2022-03-17_13h59.24.713,ANT,2021.2.3,MacIntel,60.0024001,,,1,7,55,7,1,,,,,
0.55,left,1,0.5195,,,,,,stim/both.png,stim/neutralRight.png,left,180,,001,2022-03-17_13h59.24.713,ANT,2021.2.3,MacIntel,60.0024001,,,1,8,56,45,1,,,,,
0.6,left,1,0.5756,,,,,,stim/blank.png,stim/congRight.png,left,180,,001,2022-03-17_13h59.24.713,ANT,2021.2.3,MacIntel,60.0024001,,,1,9,57,15,1,,,,,
0.55,right,1,0.6537,,,,,,stim/both.png,stim/incongLeft.png,right,180,,001,2022-03-17_13h59.24.713,ANT,2021.2.3,MacIntel,60.0024001,,,1,10,58,21,1,,,,,
1.2,left,1,0.6746,,,,,,stim/centre.png,stim/neutralLeft.png,left,0,,001,2022-03-17_13h59.24.713,ANT,2021.2.3,MacIntel,60.0024001,,,1,11,59,34,1,,,,,
0.85,left,1,0.6003,,,,,,stim/both.png,stim/congRight.png,left,180,,001,2022-03-17_13h59.24.713,ANT,2021.2.3,MacIntel,60.0024001,,,1,12,60,13,1,,,,,
1.35,left,1,0.4764,,,,,,stim/lower.png,stim/neutralRight.png,left,180,,001,2022-03-17_13h59.24.713,ANT,2021.2.3,MacIntel,60.0024001,,,1,13,61,44,1,,,,,
1.4,right,1,0.7582,,,,,,stim/blank.png,stim/incongRight.png,right,0,,001,2022-03-17_13h59.24.713,ANT,2021.2.3,MacIntel,60.0024001,,,1,14,62,27,1,,,,,
1.4,right,1,0.46,,,,,,stim/blank.png,stim/neutralLeft.png,right,180,,001,2022-03-17_13h59.24.713,ANT,2021.2.3,MacIntel,60.0024001,,,1,15,63,39,1,,,,,
0.75,right,1,0.4359,,,,,,stim/centre.png,stim/neutralRight.png,right,0,,001,2022-03-17_13h59.24.713,ANT,2021.2.3,MacIntel,60.0024001,,,1,16,64,42,1,,,,,
0.5,left,1,0.5165,,,,,,stim/upper.png,stim/congLeft.png,left,0,,001,2022-03-17_13h59.24.713,ANT,2021.2.3,MacIntel,60.0024001,,,1,17,65,0,1,,,,,
0.6,left,1,1.0291,,,,,,stim/both.png,stim/incongRight.png,left,180,,001,2022-03-17_13h59.24.713,ANT,2021.2.3,MacIntel,60.0024001,,,1,18,66,29,1,,,,,
0.65,right,1,0.5021,,,,,,stim/upper.png,stim/congRight.png,right,0,,001,2022-03-17_13h59.24.713,ANT,2021.2.3,MacIntel,60.0024001,,,1,19,67,8,1,,,,,
1.4,right,1,0.5018,,,,,,stim/centre.png,stim/neutralLeft.png,right,180,,001,2022-03-17_13h59.24.713,ANT,2021.2.3,MacIntel,60.0024001,,,1,20,68,38,1,,,,,
1.45,left,1,0.5004,,,,,,stim/upper.png,stim/neutralLeft.png,left,0,,001,2022-03-17_13h59.24.713,ANT,2021.2.3,MacIntel,60.0024001,,,1,21,69,32,1,,,,,
0.95,left,1,0.709,,,,,,stim/centre.png,stim/incongLeft.png,left,0,,001,2022-03-17_13h59.24.713,ANT,2021.2.3,MacIntel,60.0024001,,,1,22,70,18,1,,,,,
0.7,right,1,0.5669,,,,,,stim/blank.png,stim/congRight.png,right,0,,001,2022-03-17_13h59.24.713,ANT,2021.2.3,MacIntel,60.0024001,,,1,23,71,11,1,,,,,
0.85,left,1,0.5483,,,,,,stim/centre.png,stim/congLeft.png,left,0,,001,2022-03-17_13h59.24.713,ANT,2021.2.3,MacIntel,60.0024001,,,1,24,72,2,1,,,,,
0.55,left,1,0.5898,,,,,,stim/lower.png,stim/incongRight.png,left,180,,001,2022-03-17_13h59.24.713,ANT,2021.2.3,MacIntel,60.0024001,,,1,25,73,28,1,,,,,
1.3,left,1,0.4362,,,,,,stim/centre.png,stim/congRight.png,left,180,,001,2022-03-17_13h59.24.713,ANT,2021.2.3,MacIntel,60.0024001,,,1,26,74,14,1,,,,,
0.9,left,1,0.6683,,,,,,stim/blank.png,stim/incongLeft.png,left,0,,001,2022-03-17_13h59.24.713,ANT,2021.2.3,MacIntel,60.0024001,,,1,27,75,19,1,,,,,
1.15,right,1,0.6235,,,,,,stim/lower.png,stim/incongLeft.png,right,180,,001,2022-03-17_13h59.24.713,ANT,2021.2.3,MacIntel,60.0024001,,,1,28,76,20,1,,,,,
1.35,left,1,0.5183,,,,,,stim/lower.png,stim/congRight.png,left,180,,001,2022-03-17_13h59.24.713,ANT,2021.2.3,MacIntel,60.0024001,,,1,29,77,12,1,,,,,
0.5,right,1,0.5328,,,,,,stim/lower.png,stim/congLeft.png,right,180,,001,2022-03-17_13h59.24.713,ANT,2021.2.3,MacIntel,60.0024001,,,1,30,78,4,1,,,,,
1.55,right,1,0.5269,,,,,,stim/both.png,stim/neutralLeft.png,right,180,,001,2022-03-17_13h59.24.713,ANT,2021.2.3,MacIntel,60.0024001,,,1,31,79,37,1,,,,,
0.4,left,1,0.6616,,,,,,stim/both.png,stim/congLeft.png,left,0,,001,2022-03-17_13h59.24.713,ANT,2021.2.3,MacIntel,60.0024001,,,1,32,80,1,1,,,,,
0.85,right,1,0.7697,,,,,,stim/centre.png,stim/incongRight.png,right,0,,001,2022-03-17_13h59.24.713,ANT,2021.2.3,MacIntel,60.0024001,,,1,33,81,26,1,,,,,
0.5,right,1,0.5353,,,,,,stim/both.png,stim/congLeft.png,right,180,,001,2022-03-17_13h59.24.713,ANT,2021.2.3,MacIntel,60.0024001,,,1,34,82,5,1,,,,,
1.2,left,1,0.5895,,,,,,stim/blank.png,stim/congLeft.png,left,0,,001,2022-03-17_13h59.24.713,ANT,2021.2.3,MacIntel,60.0024001,,,1,35,83,3,1,,,,,
1.15,right,1,0.5928,,,,,,stim/both.png,stim/congRight.png,right,0,,001,2022-03-17_13h59.24.713,ANT,2021.2.3,MacIntel,60.0024001,,,1,36,84,9,1,,,,,
0.8,left,1,0.5684,,,,,,stim/blank.png,stim/neutralLeft.png,left,0,,001,2022-03-17_13h59.24.713,ANT,2021.2.3,MacIntel,60.0024001,,,1,37,85,35,1,,,,,
1,left,1,0.7524,,,,,,stim/both.png,stim/incongLeft.png,left,0,,001,2022-03-17_13h59.24.713,ANT,2021.2.3,MacIntel,60.0024001,,,1,38,86,17,1,,,,,
1,left,1,0.7749,,,,,,stim/blank.png,stim/incongRight.png,left,180,,001,2022-03-17_13h59.24.713,ANT,2021.2.3,MacIntel,60.0024001,,,1,39,87,31,1,,,,,
1,right,1,0.6528,,,,,,stim/both.png,stim/incongRight.png,right,0,,001,2022-03-17_13h59.24.713,ANT,2021.2.3,MacIntel,60.0024001,,,1,40,88,25,1,,,,,
1.15,right,1,0.5518,,,,,,stim/blank.png,stim/neutralRight.png,right,0,,001,2022-03-17_13h59.24.713,ANT,2021.2.3,MacIntel,60.0024001,,,1,41,89,43,1,,,,,
1.5,right,1,0.4844,,,,,,stim/lower.png,stim/neutralLeft.png,right,180,,001,2022-03-17_13h59.24.713,ANT,2021.2.3,MacIntel,60.0024001,,,1,42,90,36,1,,,,,
0.55,right,1,0.8191,,,,,,stim/upper.png,stim/incongRight.png,right,0,,001,2022-03-17_13h59.24.713,ANT,2021.2.3,MacIntel,60.0024001,,,1,43,91,24,1,,,,,
0.55,right,1,0.492,,,,,,stim/centre.png,stim/congRight.png,right,0,,001,2022-03-17_13h59.24.713,ANT,2021.2.3,MacIntel,60.0024001,,,1,44,92,10,1,,,,,
0.5,left,1,0.5408,,,,,,stim/both.png,stim/neutralLeft.png,left,0,,001,2022-03-17_13h59.24.713,ANT,2021.2.3,MacIntel,60.0024001,,,1,45,93,33,1,,,,,
0.9,left,1,0.635,,,,,,stim/blank.png,stim/neutralRight.png,left,180,,001,2022-03-17_13h59.24.713,ANT,2021.2.3,MacIntel,60.0024001,,,1,46,94,47,1,,,,,
1.05,right,1,0.7199,,,,,,stim/blank.png,stim/incongLeft.png,right,180,,001,2022-03-17_13h59.24.713,ANT,2021.2.3,MacIntel,60.0024001,,,1,47,95,23,1,,,,,
,,,,,,,,,,,,,,001,2022-03-17_13h59.24.713,ANT,2021.2.3,MacIntel,60.0024001,,,,,,,,1,0,1,0,1
1.3,right,1,0.5499,,,,,,stim/centre.png,stim/congLeft.png,right,180,,001,2022-03-17_13h59.24.713,ANT,2021.2.3,MacIntel,60.0024001,,,0,0,0,6,1,,,,,
1.25,right,1,0.5645,,,,,,stim/lower.png,stim/neutralLeft.png,right,180,,001,2022-03-17_13h59.24.713,ANT,2021.2.3,MacIntel,60.0024001,,,0,1,1,36,1,,,,,
0.6,left,1,0.586,,,,,,stim/lower.png,stim/neutralRight.png,left,180,,001,2022-03-17_13h59.24.713,ANT,2021.2.3,MacIntel,60.0024001,,,0,2,2,44,1,,,,,
1.1,left,1,0.6771,,,,,,stim/upper.png,stim/incongLeft.png,left,0,,001,2022-03-17_13h59.24.713,ANT,2021.2.3,MacIntel,60.0024001,,,0,3,3,16,1,,,,,
0.95,right,1,0.5085,,,,,,stim/blank.png,stim/neutralRight.png,right,0,,001,2022-03-17_13h59.24.713,ANT,2021.2.3,MacIntel,60.0024001,,,0,4,4,43,1,,,,,
1.3,left,1,0.5018,,,,,,stim/blank.png,stim/congRight.png,left,180,,001,2022-03-17_13h59.24.713,ANT,2021.2.3,MacIntel,60.0024001,,,0,5,5,15,1,,,,,
0.8,left,1,0.5932,,,,,,stim/lower.png,stim/incongRight.png,left,180,,001,2022-03-17_13h59.24.713,ANT,2021.2.3,MacIntel,60.0024001,,,0,6,6,28,1,,,,,
0.6,right,1,0.6514,,,,,,stim/blank.png,stim/incongLeft.png,right,180,,001,2022-03-17_13h59.24.713,ANT,2021.2.3,MacIntel,60.0024001,,,0,7,7,23,1,,,,,
0.6,left,1,0.5173,,,,,,stim/centre.png,stim/congLeft.png,left,0,,001,2022-03-17_13h59.24.713,ANT,2021.2.3,MacIntel,60.0024001,,,0,8,8,2,1,,,,,
0.4,right,1,0.4761,,,,,,stim/upper.png,stim/neutralRight.png,right,0,,001,2022-03-17_13h59.24.713,ANT,2021.2.3,MacIntel,60.0024001,,,0,9,9,40,1,,,,,
0.7,right,1,0.4915,,,,,,stim/both.png,stim/congRight.png,right,0,,001,2022-03-17_13h59.24.713,ANT,2021.2.3,MacIntel,60.0024001,,,0,10,10,9,1,,,,,
1,right,1,0.394,,,,,,stim/upper.png,stim/congRight.png,right,0,,001,2022-03-17_13h59.24.713,ANT,2021.2.3,MacIntel,60.0024001,,,0,11,11,8,1,,,,,
0.5,left,1,0.5546,,,,,,stim/both.png,stim/incongLeft.png,left,0,,001,2022-03-17_13h59.24.713,ANT,2021.2.3,MacIntel,60.0024001,,,0,12,12,17,1,,,,,
0.65,left,1,0.4882,,,,,,stim/centre.png,stim/neutralRight.png,left,180,,001,2022-03-17_13h59.24.713,ANT,2021.2.3,MacIntel,60.0024001,,,0,13,13,46,1,,,,,
1.3,right,1,0.5174,,,,,,stim/centre.png,stim/neutralRight.png,right,0,,001,2022-03-17_13h59.24.713,ANT,2021.2.3,MacIntel,60.0024001,,,0,14,14,42,1,,,,,
1.2,right,1,0.5169,,,,,,stim/centre.png,stim/neutralLeft.png,right,180,,001,2022-03-17_13h59.24.713,ANT,2021.2.3,MacIntel,60.0024001,,,0,15,15,38,1,,,,,
0.55,left,1,0.5496,,,,,,stim/both.png,stim/congLeft.png,left,0,,001,2022-03-17_13h59.24.713,ANT,2021.2.3,MacIntel,60.0024001,,,0,16,16,1,1,,,,,
1.05,right,1,0.718,,,,,,stim/centre.png,stim/incongLeft.png,right,180,,001,2022-03-17_13h59.24.713,ANT,2021.2.3,MacIntel,60.0024001,,,0,17,17,22,1,,,,,
1.2,right,1,0.4897,,,,,,stim/both.png,stim/congLeft.png,right,180,,001,2022-03-17_13h59.24.713,ANT,2021.2.3,MacIntel,60.0024001,,,0,18,18,5,1,,,,,
1.15,left,1,0.501,,,,,,stim/centre.png,stim/neutralLeft.png,left,0,,001,2022-03-17_13h59.24.713,ANT,2021.2.3,MacIntel,60.0024001,,,0,19,19,34,1,,,,,
0.5,left,1,0.6343,,,,,,stim/both.png,stim/incongRight.png,left,180,,001,2022-03-17_13h59.24.713,ANT,2021.2.3,MacIntel,60.0024001,,,0,20,20,29,1,,,,,
1.2,left,1,0.483,,,,,,stim/blank.png,stim/neutralRight.png,left,180,,001,2022-03-17_13h59.24.713,ANT,2021.2.3,MacIntel,60.0024001,,,0,21,21,47,1,,,,,
0.95,left,1,0.4527,,,,,,stim/lower.png,stim/congRight.png,left,180,,001,2022-03-17_13h59.24.713,ANT,2021.2.3,MacIntel,60.0024001,,,0,22,22,12,1,,,,,
1.25,right,1,0.7342,,,,,,stim/blank.png,stim/incongRight.png,right,0,,001,2022-03-17_13h59.24.713,ANT,2021.2.3,MacIntel,60.0024001,,,0,23,23,27,1,,,,,
0.85,right,1,0.4893,,,,,,stim/blank.png,stim/congRight.png,right,0,,001,2022-03-17_13h59.24.713,ANT,2021.2.3,MacIntel,60.0024001,,,0,24,24,11,1,,,,,
0.9,right,1,0.668,,,,,,stim/upper.png,stim/incongRight.png,right,0,,001,2022-03-17_13h59.24.713,ANT,2021.2.3,MacIntel,60.0024001,,,0,25,25,24,1,,,,,
0.8,left,1,0.6296,,,,,,stim/blank.png,stim/incongLeft.png,left,0,,001,2022-03-17_13h59.24.713,ANT,2021.2.3,MacIntel,60.0024001,,,0,26,26,19,1,,,,,
0.45,left,1,0.5418,,,,,,stim/blank.png,stim/neutralLeft.png,left,0,,001,2022-03-17_13h59.24.713,ANT,2021.2.3,MacIntel,60.0024001,,,0,27,27,35,1,,,,,
0.65,right,1,0.5658,,,,,,stim/blank.png,stim/neutralLeft.png,right,180,,001,2022-03-17_13h59.24.713,ANT,2021.2.3,MacIntel,60.0024001,,,0,28,28,39,1,,,,,
0.75,right,1,0.8267,,,,,,stim/both.png,stim/incongLeft.png,right,180,,001,2022-03-17_13h59.24.713,ANT,2021.2.3,MacIntel,60.0024001,,,0,29,29,21,1,,,,,
1.35,right,1,0.5521,,,,,,stim/lower.png,stim/incongLeft.png,right,180,,001,2022-03-17_13h59.24.713,ANT,2021.2.3,MacIntel,60.0024001,,,0,30,30,20,1,,,,,
0.7,right,1,0.4847,,,,,,stim/both.png,stim/neutralLeft.png,right,180,,001,2022-03-17_13h59.24.713,ANT,2021.2.3,MacIntel,60.0024001,,,0,31,31,37,1,,,,,
0.5,left,1,0.5136,,,,,,stim/both.png,stim/neutralRight.png,left,180,,001,2022-03-17_13h59.24.713,ANT,2021.2.3,MacIntel,60.0024001,,,0,32,32,45,1,,,,,
1.4,left,1,0.4745,,,,,,stim/both.png,stim/congRight.png,left,180,,001,2022-03-17_13h59.24.713,ANT,2021.2.3,MacIntel,60.0024001,,,0,33,33,13,1,,,,,
0.95,left,1,0.8223,,,,,,stim/centre.png,stim/incongLeft.png,left,0,,001,2022-03-17_13h59.24.713,ANT,2021.2.3,MacIntel,60.0024001,,,0,34,34,18,1,,,,,
1.2,right,1,0.7022,,,,,,stim/centre.png,stim/incongRight.png,right,0,,001,2022-03-17_13h59.24.713,ANT,2021.2.3,MacIntel,60.0024001,,,0,35,35,26,1,,,,,
0.5,right,1,0.7377,,,,,,stim/both.png,stim/incongRight.png,right,0,,001,2022-03-17_13h59.24.713,ANT,2021.2.3,MacIntel,60.0024001,,,0,36,36,25,1,,,,,
0.75,right,1,0.441,,,,,,stim/blank.png,stim/congLeft.png,right,180,,001,2022-03-17_13h59.24.713,ANT,2021.2.3,MacIntel,60.0024001,,,0,37,37,7,1,,,,,
1.4,right,1,0.4704,,,,,,stim/centre.png,stim/congRight.png,right,0,,001,2022-03-17_13h59.24.713,ANT,2021.2.3,MacIntel,60.0024001,,,0,38,38,10,1,,,,,
1.2,right,1,0.5186,,,,,,stim/both.png,stim/neutralRight.png,right,0,,001,2022-03-17_13h59.24.713,ANT,2021.2.3,MacIntel,60.0024001,,,0,39,39,41,1,,,,,
1.5,right,0,0.5686,,,,,,stim/blank.png,stim/congLeft.png,left,0,,001,2022-03-17_13h59.24.713,ANT,2021.2.3,MacIntel,60.0024001,,,0,40,40,3,1,,,,,
1,left,1,0.7512,,,,,,stim/centre.png,stim/incongRight.png,left,180,,001,2022-03-17_13h59.24.713,ANT,2021.2.3,MacIntel,60.0024001,,,0,41,41,30,1,,,,,
1.35,left,1,0.5529,,,,,,stim/upper.png,stim/congLeft.png,left,0,,001,2022-03-17_13h59.24.713,ANT,2021.2.3,MacIntel,60.0024001,,,0,42,42,0,1,,,,,
1.3,left,1,0.6916,,,,,,stim/blank.png,stim/incongRight.png,left,180,,001,2022-03-17_13h59.24.713,ANT,2021.2.3,MacIntel,60.0024001,,,0,43,43,31,1,,,,,
0.8,right,1,0.4849,,,,,,stim/lower.png,stim/congLeft.png,right,180,,001,2022-03-17_13h59.24.713,ANT,2021.2.3,MacIntel,60.0024001,,,0,44,44,4,1,,,,,
0.5,left,1,0.5455,,,,,,stim/centre.png,stim/congRight.png,left,180,,001,2022-03-17_13h59.24.713,ANT,2021.2.3,MacIntel,60.0024001,,,0,45,45,14,1,,,,,
1.15,left,1,0.4865,,,,,,stim/upper.png,stim/neutralLeft.png,left,0,,001,2022-03-17_13h59.24.713,ANT,2021.2.3,MacIntel,60.0024001,,,0,46,46,32,1,,,,,
0.9,left,1,0.5064,,,,,,stim/both.png,stim/neutralLeft.png,left,0,,001,2022-03-17_13h59.24.713,ANT,2021.2.3,MacIntel,60.0024001,,,0,47,47,33,1,,,,,
0.7,right,1,0.5003,,,,,,stim/lower.png,stim/congLeft.png,right,180,,001,2022-03-17_13h59.24.713,ANT,2021.2.3,MacIntel,60.0024001,,,1,0,48,4,1,,,,,
0.45,left,1,0.6028,,,,,,stim/lower.png,stim/incongRight.png,left,180,,001,2022-03-17_13h59.24.713,ANT,2021.2.3,MacIntel,60.0024001,,,1,1,49,28,1,,,,,
1.55,left,1,0.5348,,,,,,stim/blank.png,stim/neutralLeft.png,left,0,,001,2022-03-17_13h59.24.713,ANT,2021.2.3,MacIntel,60.0024001,,,1,2,50,35,1,,,,,
0.4,right,1,0.6438,,,,,,stim/blank.png,stim/neutralRight.png,right,0,,001,2022-03-17_13h59.24.713,ANT,2021.2.3,MacIntel,60.0024001,,,1,3,51,43,1,,,,,
0.9,right,1,0.5231,,,,,,stim/centre.png,stim/neutralRight.png,right,0,,001,2022-03-17_13h59.24.713,ANT,2021.2.3,MacIntel,60.0024001,,,1,4,52,42,1,,,,,
1.4,left,1,0.4882,,,,,,stim/upper.png,stim/congLeft.png,left,0,,001,2022-03-17_13h59.24.713,ANT,2021.2.3,MacIntel,60.0024001,,,1,5,53,0,1,,,,,
0.6,left,1,0.7523,,,,,,stim/blank.png,stim/incongRight.png,left,180,,001,2022-03-17_13h59.24.713,ANT,2021.2.3,MacIntel,60.0024001,,,1,6,54,31,1,,,,,
1.25,right,1,0.7515,,,,,,stim/upper.png,stim/incongRight.png,right,0,,001,2022-03-17_13h59.24.713,ANT,2021.2.3,MacIntel,60.0024001,,,1,7,55,24,1,,,,,
0.85,right,1,0.4896,,,,,,stim/both.png,stim/congLeft.png,right,180,,001,2022-03-17_13h59.24.713,ANT,2021.2.3,MacIntel,60.0024001,,,1,8,56,5,1,,,,,
1.15,right,1,0.4839,,,,,,stim/blank.png,stim/congLeft.png,right,180,,001,2022-03-17_13h59.24.713,ANT,2021.2.3,MacIntel,60.0024001,,,1,9,57,7,1,,,,,
0.45,left,1,0.608,,,,,,stim/both.png,stim/incongLeft.png,left,0,,001,2022-03-17_13h59.24.713,ANT,2021.2.3,MacIntel,60.0024001,,,1,10,58,17,1,,,,,
1.5,left,1,0.5735,,,,,,stim/blank.png,stim/neutralRight.png,left,180,,001,2022-03-17_13h59.24.713,ANT,2021.2.3,MacIntel,60.0024001,,,1,11,59,47,1,,,,,
1.45,right,1,0.5353,,,,,,stim/centre.png,stim/congLeft.png,right,180,,001,2022-03-17_13h59.24.713,ANT,2021.2.3,MacIntel,60.0024001,,,1,12,60,6,1,,,,,
1.45,left,1,0.8335,,,,,,stim/both.png,stim/incongRight.png,left,180,,001,2022-03-17_13h59.24.713,ANT,2021.2.3,MacIntel,60.0024001,,,1,13,61,29,1,,,,,
0.8,left,1,0.6081,,,,,,stim/blank.png,stim/congRight.png,left,180,,001,2022-03-17_13h59.24.713,ANT,2021.2.3,MacIntel,60.0024001,,,1,14,62,15,1,,,,,
0.85,left,1,0.7504,,,,,,stim/centre.png,stim/incongRight.png,left,180,,001,2022-03-17_13h59.24.713,ANT,2021.2.3,MacIntel,60.0024001,,,1,15,63,30,1,,,,,
0.85,right,1,0.5732,,,,,,stim/blank.png,stim/congRight.png,right,0,,001,2022-03-17_13h59.24.713,ANT,2021.2.3,MacIntel,60.0024001,,,1,16,64,11,1,,,,,
1.35,left,1,0.6834,,,,,,stim/both.png,stim/congRight.png,left,180,,001,2022-03-17_13h59.24.713,ANT,2021.2.3,MacIntel,60.0024001,,,1,17,65,13,1,,,,,
1.25,right,1,0.9426,,,,,,stim/blank.png,stim/incongLeft.png,right,180,,001,2022-03-17_13h59.24.713,ANT,2021.2.3,MacIntel,60.0024001,,,1,18,66,23,1,,,,,
1,left,1,0.744,,,,,,stim/blank.png,stim/incongLeft.png,left,0,,001,2022-03-17_13h59.24.713,ANT,2021.2.3,MacIntel,60.0024001,,,1,19,67,19,1,,,,,
1.4,left,1,0.5846,,,,,,stim/upper.png,stim/incongLeft.png,left,0,,001,2022-03-17_13h59.24.713,ANT,2021.2.3,MacIntel,60.0024001,,,1,20,68,16,1,,,,,
0.5,right,1,0.6217,,,,,,stim/both.png,stim/neutralLeft.png,right,180,,001,2022-03-17_13h59.24.713,ANT,2021.2.3,MacIntel,60.0024001,,,1,21,69,37,1,,,,,
1.4,left,1,0.4238,,,,,,stim/upper.png,stim/neutralLeft.png,left,0,,001,2022-03-17_13h59.24.713,ANT,2021.2.3,MacIntel,60.0024001,,,1,22,70,32,1,,,,,
0.45,right,1,0.7996,,,,,,stim/centre.png,stim/incongRight.png,right,0,,001,2022-03-17_13h59.24.713,ANT,2021.2.3,MacIntel,60.0024001,,,1,23,71,26,1,,,,,
1.4,left,1,0.6525,,,,,,stim/centre.png,stim/congLeft.png,left,0,,001,2022-03-17_13h59.24.713,ANT,2021.2.3,MacIntel,60.0024001,,,1,24,72,2,1,,,,,
0.45,right,1,0.5404,,,,,,stim/centre.png,stim/congRight.png,right,0,,001,2022-03-17_13h59.24.713,ANT,2021.2.3,MacIntel,60.0024001,,,1,25,73,10,1,,,,,
1.45,right,1,0.4711,,,,,,stim/upper.png,stim/congRight.png,right,0,,001,2022-03-17_13h59.24.713,ANT,2021.2.3,MacIntel,60.0024001,,,1,26,74,8,1,,,,,
1.35,right,1,0.6526,,,,,,stim/lower.png,stim/incongLeft.png,right,180,,001,2022-03-17_13h59.24.713,ANT,2021.2.3,MacIntel,60.0024001,,,1,27,75,20,1,,,,,
1.15,left,1,0.5344,,,,,,stim/centre.png,stim/neutralLeft.png,left,0,,001,2022-03-17_13h59.24.713,ANT,2021.2.3,MacIntel,60.0024001,,,1,28,76,34,1,,,,,
0.95,right,1,0.7366,,,,,,stim/centre.png,stim/incongLeft.png,right,180,,001,2022-03-17_13h59.24.713,ANT,2021.2.3,MacIntel,60.0024001,,,1,29,77,22,1,,,,,
1.55,right,1,0.4867,,,,,,stim/centre.png,stim/neutralLeft.png,right,180,,001,2022-03-17_13h59.24.713,ANT,2021.2.3,MacIntel,60.0024001,,,1,30,78,38,1,,,,,
1.4,right,1,0.4856,,,,,,stim/upper.png,stim/neutralRight.png,right,0,,001,2022-03-17_13h59.24.713,ANT,2021.2.3,MacIntel,60.0024001,,,1,31,79,40,1,,,,,
1.5,left,1,0.4431,,,,,,stim/lower.png,stim/neutralRight.png,left,180,,001,2022-03-17_13h59.24.713,ANT,2021.2.3,MacIntel,60.0024001,,,1,32,80,44,1,,,,,
0.8,left,1,0.4588,,,,,,stim/both.png,stim/neutralLeft.png,left,0,,001,2022-03-17_13h59.24.713,ANT,2021.2.3,MacIntel,60.0024001,,,1,33,81,33,1,,,,,
0.95,left,1,0.7727,,,,,,stim/centre.png,stim/incongLeft.png,left,0,,001,2022-03-17_13h59.24.713,ANT,2021.2.3,MacIntel,60.0024001,,,1,34,82,18,1,,,,,
0.8,right,1,0.5524,,,,,,stim/blank.png,stim/neutralLeft.png,right,180,,001,2022-03-17_13h59.24.713,ANT,2021.2.3,MacIntel,60.0024001,,,1,35,83,39,1,,,,,
0.55,right,1,0.7688,,,,,,stim/both.png,stim/incongLeft.png,right,180,,001,2022-03-17_13h59.24.713,ANT,2021.2.3,MacIntel,60.0024001,,,1,36,84,21,1,,,,,
0.95,left,1,0.5344,,,,,,stim/blank.png,stim/congLeft.png,left,0,,001,2022-03-17_13h59.24.713,ANT,2021.2.3,MacIntel,60.0024001,,,1,37,85,3,1,,,,,
1.5,right,1,0.5192,,,,,,stim/both.png,stim/neutralRight.png,right,0,,001,2022-03-17_13h59.24.713,ANT,2021.2.3,MacIntel,60.0024001,,,1,38,86,41,1,,,,,
0.6,right,1,0.4509,,,,,,stim/lower.png,stim/neutralLeft.png,right,180,,001,2022-03-17_13h59.24.713,ANT,2021.2.3,MacIntel,60.0024001,,,1,39,87,36,1,,,,,
0.5,left,1,0.539,,,,,,stim/centre.png,stim/congRight.png,left,180,,001,2022-03-17_13h59.24.713,ANT,2021.2.3,MacIntel,60.0024001,,,1,40,88,14,1,,,,,
1.4,right,1,0.609,,,,,,stim/blank.png,stim/incongRight.png,right,0,,001,2022-03-17_13h59.24.713,ANT,2021.2.3,MacIntel,60.0024001,,,1,41,89,27,1,,,,,
0.45,left,1,0.5105,,,,,,stim/centre.png,stim/neutralRight.png,left,180,,001,2022-03-17_13h59.24.713,ANT,2021.2.3,MacIntel,60.0024001,,,1,42,90,46,1,,,,,
1.5,left,1,0.5407,,,,,,stim/both.png,stim/neutralRight.png,left,180,,001,2022-03-17_13h59.24.713,ANT,2021.2.3,MacIntel,60.0024001,,,1,43,91,45,1,,,,,
1.55,right,1,0.4853,,,,,,stim/both.png,stim/congRight.png,right,0,,001,2022-03-17_13h59.24.713,ANT,2021.2.3,MacIntel,60.0024001,,,1,44,92,9,1,,,,,
1.2,left,0,0.5675,,,,,,stim/both.png,stim/incongRight.png,right,0,,001,2022-03-17_13h59.24.713,ANT,2021.2.3,MacIntel,60.0024001,,,1,45,93,25,1,,,,,
1.45,left,1,0.5155,,,,,,stim/lower.png,stim/congRight.png,left,180,,001,2022-03-17_13h59.24.713,ANT,2021.2.3,MacIntel,60.0024001,,,1,46,94,12,1,,,,,
0.5,left,1,0.5693,,,,,,stim/both.png,stim/congLeft.png,left,0,,001,2022-03-17_13h59.24.713,ANT,2021.2.3,MacIntel,60.0024001,,,1,47,95,1,1,,,,,
,,,,,,,,,,,,,,001,2022-03-17_13h59.24.713,ANT,2021.2.3,MacIntel,60.0024001,,,,,,,,2,0,2,0,1
