fixDuration,resp.keys,resp.corr,resp.rt,pracLoop.thisRepN,pracLoop.thisTrialN,pracLoop.thisN,pracLoop.thisIndex,pracLoop.ran,cue,tar,corrAns,targOrientation,participant,session,date,expName,psychopyVersion,OS,frameRate,instResp.keys,instResp.rt,mainLoop.thisRepN,mainLoop.thisTrialN,mainLoop.thisN,mainLoop.thisIndex,mainLoop.ran,blockLoop.thisRepN,blockLoop.thisTrialN,blockLoop.thisN,blockLoop.thisIndex,blockLoop.ran
1.25,right,1,0.6152,0,0,0,9,1,stim/both.png,stim/congRight.png,right,0,,001,2022-04-26_01h03.59.284,ANT,2021.2.3,Win32,59.70862193,,,,,,,,,,,,
1.35,right,1,0.5324,0,1,1,5,1,stim/both.png,stim/congLeft.png,right,180,,001,2022-04-26_01h03.59.284,ANT,2021.2.3,Win32,59.70862193,,,,,,,,,,,,
1.2,left,0,0.4932,0,2,2,22,1,stim/centre.png,stim/incongLeft.png,right,180,,001,2022-04-26_01h03.59.284,ANT,2021.2.3,Win32,59.70862193,,,,,,,,,,,,
0.95,right,0,0.5046,0,3,3,18,1,stim/centre.png,stim/incongLeft.png,left,0,,001,2022-04-26_01h03.59.284,ANT,2021.2.3,Win32,59.70862193,,,,,,,,,,,,
0.55,left,1,0.7651,0,4,4,16,1,stim/upper.png,stim/incongLeft.png,left,0,,001,2022-04-26_01h03.59.284,ANT,2021.2.3,Win32,59.70862193,,,,,,,,,,,,
0.9,right,1,0.7629,0,5,5,23,1,stim/blank.png,stim/incongLeft.png,right,180,,001,2022-04-26_01h03.59.284,ANT,2021.2.3,Win32,59.70862193,,,,,,,,,,,,
1.35,left,1,0.7057,0,6,6,19,1,stim/blank.png,stim/incongLeft.png,left,0,,001,2022-04-26_01h03.59.284,ANT,2021.2.3,Win32,59.70862193,,,,,,,,,,,,
1.55,right,1,0.6862,0,7,7,20,1,stim/lower.png,stim/incongLeft.png,right,180,,001,2022-04-26_01h03.59.284,ANT,2021.2.3,Win32,59.70862193,,,,,,,,,,,,
1.5,left,1,0.655,0,8,8,15,1,stim/blank.png,stim/congRight.png,left,180,,001,2022-04-26_01h03.59.284,ANT,2021.2.3,Win32,59.70862193,,,,,,,,,,,,
0.4,left,1,0.4989,0,9,9,0,1,stim/upper.png,stim/congLeft.png,left,0,,001,2022-04-26_01h03.59.284,ANT,2021.2.3,Win32,59.70862193,,,,,,,,,,,,
0.5,left,1,0.5587,0,10,10,1,1,stim/both.png,stim/congLeft.png,left,0,,001,2022-04-26_01h03.59.284,ANT,2021.2.3,Win32,59.70862193,,,,,,,,,,,,
0.7,right,1,0.4518,0,11,11,4,1,stim/lower.png,stim/congLeft.png,right,180,,001,2022-04-26_01h03.59.284,ANT,2021.2.3,Win32,59.70862193,,,,,,,,,,,,
1.45,right,1,0.5039,0,12,12,7,1,stim/blank.png,stim/congLeft.png,right,180,,001,2022-04-26_01h03.59.284,ANT,2021.2.3,Win32,59.70862193,,,,,,,,,,,,
1.05,right,1,0.4759,0,13,13,10,1,stim/centre.png,stim/congRight.png,right,0,,001,2022-04-26_01h03.59.284,ANT,2021.2.3,Win32,59.70862193,,,,,,,,,,,,
0.8,left,0,0.5029,0,14,14,21,1,stim/both.png,stim/incongLeft.png,right,180,,001,2022-04-26_01h03.59.284,ANT,2021.2.3,Win32,59.70862193,,,,,,,,,,,,
0.95,right,1,0.5493,0,15,15,6,1,stim/centre.png,stim/congLeft.png,right,180,,001,2022-04-26_01h03.59.284,ANT,2021.2.3,Win32,59.70862193,,,,,,,,,,,,
1.3,left,1,0.6216,0,16,16,14,1,stim/centre.png,stim/congRight.png,left,180,,001,2022-04-26_01h03.59.284,ANT,2021.2.3,Win32,59.70862193,,,,,,,,,,,,
1.15,left,1,0.8054,0,17,17,17,1,stim/both.png,stim/incongLeft.png,left,0,,001,2022-04-26_01h03.59.284,ANT,2021.2.3,Win32,59.70862193,,,,,,,,,,,,
0.4,left,1,0.4896,0,18,18,2,1,stim/centre.png,stim/congLeft.png,left,0,,001,2022-04-26_01h03.59.284,ANT,2021.2.3,Win32,59.70862193,,,,,,,,,,,,
0.6,left,1,0.4847,0,19,19,13,1,stim/both.png,stim/congRight.png,left,180,,001,2022-04-26_01h03.59.284,ANT,2021.2.3,Win32,59.70862193,,,,,,,,,,,,
0.85,right,1,0.5196,0,20,20,11,1,stim/blank.png,stim/congRight.png,right,0,,001,2022-04-26_01h03.59.284,ANT,2021.2.3,Win32,59.70862193,,,,,,,,,,,,
0.95,right,1,0.5206,0,21,21,8,1,stim/upper.png,stim/congRight.png,right,0,,001,2022-04-26_01h03.59.284,ANT,2021.2.3,Win32,59.70862193,,,,,,,,,,,,
0.95,left,1,0.5362,0,22,22,3,1,stim/blank.png,stim/congLeft.png,left,0,,001,2022-04-26_01h03.59.284,ANT,2021.2.3,Win32,59.70862193,,,,,,,,,,,,
0.65,left,1,0.6224,0,23,23,12,1,stim/lower.png,stim/congRight.png,left,180,,001,2022-04-26_01h03.59.284,ANT,2021.2.3,Win32,59.70862193,,,,,,,,,,,,
1.1,right,1,0.5962,,,,,,stim/blank.png,stim/congLeft.png,right,180,,001,2022-04-26_01h03.59.284,ANT,2021.2.3,Win32,59.70862193,space,3.895,0,0,0,7,1,,,,,
0.8,left,1,0.5308,,,,,,stim/lower.png,stim/neutralRight.png,left,180,,001,2022-04-26_01h03.59.284,ANT,2021.2.3,Win32,59.70862193,,,0,1,1,44,1,,,,,
1.55,left,1,0.5504,,,,,,stim/upper.png,stim/congLeft.png,left,0,,001,2022-04-26_01h03.59.284,ANT,2021.2.3,Win32,59.70862193,,,0,2,2,0,1,,,,,
1.3,right,1,0.6557,,,,,,stim/both.png,stim/incongLeft.png,right,180,,001,2022-04-26_01h03.59.284,ANT,2021.2.3,Win32,59.70862193,,,0,3,3,21,1,,,,,
1.3,left,1,0.5785,,,,,,stim/both.png,stim/neutralLeft.png,left,0,,001,2022-04-26_01h03.59.284,ANT,2021.2.3,Win32,59.70862193,,,0,4,4,33,1,,,,,
1.05,left,0,0.9083,,,,,,stim/centre.png,stim/incongRight.png,right,0,,001,2022-04-26_01h03.59.284,ANT,2021.2.3,Win32,59.70862193,,,0,5,5,26,1,,,,,
0.55,left,1,0.6177,,,,,,stim/upper.png,stim/incongLeft.png,left,0,,001,2022-04-26_01h03.59.284,ANT,2021.2.3,Win32,59.70862193,,,0,6,6,16,1,,,,,
0.9,right,1,0.6222,,,,,,stim/both.png,stim/incongRight.png,right,0,,001,2022-04-26_01h03.59.284,ANT,2021.2.3,Win32,59.70862193,,,0,7,7,25,1,,,,,
0.65,left,1,0.5762,,,,,,stim/upper.png,stim/neutralLeft.png,left,0,,001,2022-04-26_01h03.59.284,ANT,2021.2.3,Win32,59.70862193,,,0,8,8,32,1,,,,,
0.5,right,1,0.5713,,,,,,stim/blank.png,stim/neutralLeft.png,right,180,,001,2022-04-26_01h03.59.284,ANT,2021.2.3,Win32,59.70862193,,,0,9,9,39,1,,,,,
1.35,left,1,0.4847,,,,,,stim/centre.png,stim/neutralLeft.png,left,0,,001,2022-04-26_01h03.59.284,ANT,2021.2.3,Win32,59.70862193,,,0,10,10,34,1,,,,,
1.2,left,1,0.6678,,,,,,stim/both.png,stim/incongRight.png,left,180,,001,2022-04-26_01h03.59.284,ANT,2021.2.3,Win32,59.70862193,,,0,11,11,29,1,,,,,
1.3,left,1,0.6512,,,,,,stim/blank.png,stim/neutralRight.png,left,180,,001,2022-04-26_01h03.59.284,ANT,2021.2.3,Win32,59.70862193,,,0,12,12,47,1,,,,,
1.5,right,1,0.5336,,,,,,stim/both.png,stim/neutralLeft.png,right,180,,001,2022-04-26_01h03.59.284,ANT,2021.2.3,Win32,59.70862193,,,0,13,13,37,1,,,,,
1.45,left,1,0.5685,,,,,,stim/blank.png,stim/congLeft.png,left,0,,001,2022-04-26_01h03.59.284,ANT,2021.2.3,Win32,59.70862193,,,0,14,14,3,1,,,,,
0.85,left,1,0.5664,,,,,,stim/blank.png,stim/neutralLeft.png,left,0,,001,2022-04-26_01h03.59.284,ANT,2021.2.3,Win32,59.70862193,,,0,15,15,35,1,,,,,
0.7,right,1,0.5168,,,,,,stim/lower.png,stim/neutralLeft.png,right,180,,001,2022-04-26_01h03.59.284,ANT,2021.2.3,Win32,59.70862193,,,0,16,16,36,1,,,,,
0.65,right,1,0.4827,,,,,,stim/upper.png,stim/neutralRight.png,right,0,,001,2022-04-26_01h03.59.284,ANT,2021.2.3,Win32,59.70862193,,,0,17,17,40,1,,,,,
1.3,right,1,0.4045,,,,,,stim/both.png,stim/congLeft.png,right,180,,001,2022-04-26_01h03.59.284,ANT,2021.2.3,Win32,59.70862193,,,0,18,18,5,1,,,,,
0.75,right,1,0.5674,,,,,,stim/centre.png,stim/incongLeft.png,right,180,,001,2022-04-26_01h03.59.284,ANT,2021.2.3,Win32,59.70862193,,,0,19,19,22,1,,,,,
1.05,right,1,0.517,,,,,,stim/both.png,stim/congRight.png,right,0,,001,2022-04-26_01h03.59.284,ANT,2021.2.3,Win32,59.70862193,,,0,20,20,9,1,,,,,
1.3,left,1,0.5094,,,,,,stim/both.png,stim/congRight.png,left,180,,001,2022-04-26_01h03.59.284,ANT,2021.2.3,Win32,59.70862193,,,0,21,21,13,1,,,,,
0.85,right,1,0.5767,,,,,,stim/upper.png,stim/congRight.png,right,0,,001,2022-04-26_01h03.59.284,ANT,2021.2.3,Win32,59.70862193,,,0,22,22,8,1,,,,,
0.45,left,1,0.6143,,,,,,stim/lower.png,stim/incongRight.png,left,180,,001,2022-04-26_01h03.59.284,ANT,2021.2.3,Win32,59.70862193,,,0,23,23,28,1,,,,,
0.45,right,1,0.6646,,,,,,stim/lower.png,stim/incongLeft.png,right,180,,001,2022-04-26_01h03.59.284,ANT,2021.2.3,Win32,59.70862193,,,0,24,24,20,1,,,,,
1.5,left,1,0.6804,,,,,,stim/centre.png,stim/incongRight.png,left,180,,001,2022-04-26_01h03.59.284,ANT,2021.2.3,Win32,59.70862193,,,0,25,25,30,1,,,,,
1.4,right,1,0.4205,,,,,,stim/lower.png,stim/congLeft.png,right,180,,001,2022-04-26_01h03.59.284,ANT,2021.2.3,Win32,59.70862193,,,0,26,26,4,1,,,,,
1,right,1,0.5611,,,,,,stim/blank.png,stim/neutralRight.png,right,0,,001,2022-04-26_01h03.59.284,ANT,2021.2.3,Win32,59.70862193,,,0,27,27,43,1,,,,,
1.25,left,1,0.385,,,,,,stim/centre.png,stim/congRight.png,left,180,,001,2022-04-26_01h03.59.284,ANT,2021.2.3,Win32,59.70862193,,,0,28,28,14,1,,,,,
1.3,left,1,0.6389,,,,,,stim/centre.png,stim/incongLeft.png,left,0,,001,2022-04-26_01h03.59.284,ANT,2021.2.3,Win32,59.70862193,,,0,29,29,18,1,,,,,
1.3,right,1,0.4931,,,,,,stim/centre.png,stim/congLeft.png,right,180,,001,2022-04-26_01h03.59.284,ANT,2021.2.3,Win32,59.70862193,,,0,30,30,6,1,,,,,
0.7,right,1,0.4873,,,,,,stim/centre.png,stim/congRight.png,right,0,,001,2022-04-26_01h03.59.284,ANT,2021.2.3,Win32,59.70862193,,,0,31,31,10,1,,,,,
0.95,left,1,0.4232,,,,,,stim/lower.png,stim/congRight.png,left,180,,001,2022-04-26_01h03.59.284,ANT,2021.2.3,Win32,59.70862193,,,0,32,32,12,1,,,,,
1.4,right,1,0.502,,,,,,stim/blank.png,stim/congRight.png,right,0,,001,2022-04-26_01h03.59.284,ANT,2021.2.3,Win32,59.70862193,,,0,33,33,11,1,,,,,
1.45,right,1,0.6021,,,,,,stim/blank.png,stim/incongLeft.png,right,180,,001,2022-04-26_01h03.59.284,ANT,2021.2.3,Win32,59.70862193,,,0,34,34,23,1,,,,,
0.9,left,1,0.4987,,,,,,stim/blank.png,stim/congRight.png,left,180,,001,2022-04-26_01h03.59.284,ANT,2021.2.3,Win32,59.70862193,,,0,35,35,15,1,,,,,
0.65,right,1,0.5314,,,,,,stim/both.png,stim/neutralRight.png,right,0,,001,2022-04-26_01h03.59.284,ANT,2021.2.3,Win32,59.70862193,,,0,36,36,41,1,,,,,
1.4,left,1,0.4917,,,,,,stim/centre.png,stim/neutralRight.png,left,180,,001,2022-04-26_01h03.59.284,ANT,2021.2.3,Win32,59.70862193,,,0,37,37,46,1,,,,,
0.65,left,1,0.7014,,,,,,stim/blank.png,stim/incongLeft.png,left,0,,001,2022-04-26_01h03.59.284,ANT,2021.2.3,Win32,59.70862193,,,0,38,38,19,1,,,,,
0.6,right,1,0.4475,,,,,,stim/centre.png,stim/neutralLeft.png,right,180,,001,2022-04-26_01h03.59.284,ANT,2021.2.3,Win32,59.70862193,,,0,39,39,38,1,,,,,
0.8,left,1,0.7053,,,,,,stim/both.png,stim/incongLeft.png,left,0,,001,2022-04-26_01h03.59.284,ANT,2021.2.3,Win32,59.70862193,,,0,40,40,17,1,,,,,
1.55,left,1,0.581,,,,,,stim/both.png,stim/congLeft.png,left,0,,001,2022-04-26_01h03.59.284,ANT,2021.2.3,Win32,59.70862193,,,0,41,41,1,1,,,,,
0.95,left,1,0.4811,,,,,,stim/both.png,stim/neutralRight.png,left,180,,001,2022-04-26_01h03.59.284,ANT,2021.2.3,Win32,59.70862193,,,0,42,42,45,1,,,,,
1.55,left,1,0.6161,,,,,,stim/blank.png,stim/incongRight.png,left,180,,001,2022-04-26_01h03.59.284,ANT,2021.2.3,Win32,59.70862193,,,0,43,43,31,1,,,,,
1.5,right,1,0.5638,,,,,,stim/centre.png,stim/neutralRight.png,right,0,,001,2022-04-26_01h03.59.284,ANT,2021.2.3,Win32,59.70862193,,,0,44,44,42,1,,,,,
1.45,right,1,0.6023,,,,,,stim/upper.png,stim/incongRight.png,right,0,,001,2022-04-26_01h03.59.284,ANT,2021.2.3,Win32,59.70862193,,,0,45,45,24,1,,,,,
0.65,left,1,0.5035,,,,,,stim/centre.png,stim/congLeft.png,left,0,,001,2022-04-26_01h03.59.284,ANT,2021.2.3,Win32,59.70862193,,,0,46,46,2,1,,,,,
1.4,right,1,0.7351,,,,,,stim/blank.png,stim/incongRight.png,right,0,,001,2022-04-26_01h03.59.284,ANT,2021.2.3,Win32,59.70862193,,,0,47,47,27,1,,,,,
1.4,right,1,0.531,,,,,,stim/centre.png,stim/neutralRight.png,right,0,,001,2022-04-26_01h03.59.284,ANT,2021.2.3,Win32,59.70862193,,,1,0,48,42,1,,,,,
1.4,right,1,0.5085,,,,,,stim/both.png,stim/congRight.png,right,0,,001,2022-04-26_01h03.59.284,ANT,2021.2.3,Win32,59.70862193,,,1,1,49,9,1,,,,,
0.8,right,1,0.4724,,,,,,stim/lower.png,stim/congLeft.png,right,180,,001,2022-04-26_01h03.59.284,ANT,2021.2.3,Win32,59.70862193,,,1,2,50,4,1,,,,,
0.45,right,1,0.591,,,,,,stim/both.png,stim/neutralLeft.png,right,180,,001,2022-04-26_01h03.59.284,ANT,2021.2.3,Win32,59.70862193,,,1,3,51,37,1,,,,,
0.55,right,1,0.534,,,,,,stim/centre.png,stim/neutralLeft.png,right,180,,001,2022-04-26_01h03.59.284,ANT,2021.2.3,Win32,59.70862193,,,1,4,52,38,1,,,,,
0.6,right,1,0.6403,,,,,,stim/centre.png,stim/congRight.png,right,0,,001,2022-04-26_01h03.59.284,ANT,2021.2.3,Win32,59.70862193,,,1,5,53,10,1,,,,,
1.1,left,1,0.5526,,,,,,stim/lower.png,stim/neutralRight.png,left,180,,001,2022-04-26_01h03.59.284,ANT,2021.2.3,Win32,59.70862193,,,1,6,54,44,1,,,,,
0.95,left,1,0.5682,,,,,,stim/blank.png,stim/neutralLeft.png,left,0,,001,2022-04-26_01h03.59.284,ANT,2021.2.3,Win32,59.70862193,,,1,7,55,35,1,,,,,
1.45,right,1,0.48,,,,,,stim/lower.png,stim/neutralLeft.png,right,180,,001,2022-04-26_01h03.59.284,ANT,2021.2.3,Win32,59.70862193,,,1,8,56,36,1,,,,,
0.7,right,1,0.6339,,,,,,stim/blank.png,stim/incongLeft.png,right,180,,001,2022-04-26_01h03.59.284,ANT,2021.2.3,Win32,59.70862193,,,1,9,57,23,1,,,,,
0.7,left,1,0.4472,,,,,,stim/lower.png,stim/congRight.png,left,180,,001,2022-04-26_01h03.59.284,ANT,2021.2.3,Win32,59.70862193,,,1,10,58,12,1,,,,,
1.15,right,1,0.5649,,,,,,stim/lower.png,stim/incongLeft.png,right,180,,001,2022-04-26_01h03.59.284,ANT,2021.2.3,Win32,59.70862193,,,1,11,59,20,1,,,,,
1.05,left,1,0.488,,,,,,stim/centre.png,stim/neutralLeft.png,left,0,,001,2022-04-26_01h03.59.284,ANT,2021.2.3,Win32,59.70862193,,,1,12,60,34,1,,,,,
0.95,right,1,0.4422,,,,,,stim/blank.png,stim/congLeft.png,right,180,,001,2022-04-26_01h03.59.284,ANT,2021.2.3,Win32,59.70862193,,,1,13,61,7,1,,,,,
0.95,left,1,0.4981,,,,,,stim/upper.png,stim/incongLeft.png,left,0,,001,2022-04-26_01h03.59.284,ANT,2021.2.3,Win32,59.70862193,,,1,14,62,16,1,,,,,
0.95,left,1,0.4386,,,,,,stim/both.png,stim/congRight.png,left,180,,001,2022-04-26_01h03.59.284,ANT,2021.2.3,Win32,59.70862193,,,1,15,63,13,1,,,,,
0.95,left,1,0.5435,,,,,,stim/blank.png,stim/incongRight.png,left,180,,001,2022-04-26_01h03.59.284,ANT,2021.2.3,Win32,59.70862193,,,1,16,64,31,1,,,,,
0.65,left,1,0.4243,,,,,,stim/blank.png,stim/congRight.png,left,180,,001,2022-04-26_01h03.59.284,ANT,2021.2.3,Win32,59.70862193,,,1,17,65,15,1,,,,,
1,left,1,0.4374,,,,,,stim/upper.png,stim/congLeft.png,left,0,,001,2022-04-26_01h03.59.284,ANT,2021.2.3,Win32,59.70862193,,,1,18,66,0,1,,,,,
1.45,left,0,0.4643,,,,,,stim/blank.png,stim/incongRight.png,right,0,,001,2022-04-26_01h03.59.284,ANT,2021.2.3,Win32,59.70862193,,,1,19,67,27,1,,,,,
0.7,left,1,0.67,,,,,,stim/both.png,stim/incongRight.png,left,180,,001,2022-04-26_01h03.59.284,ANT,2021.2.3,Win32,59.70862193,,,1,20,68,29,1,,,,,
1.45,right,1,0.4719,,,,,,stim/upper.png,stim/congRight.png,right,0,,001,2022-04-26_01h03.59.284,ANT,2021.2.3,Win32,59.70862193,,,1,21,69,8,1,,,,,
0.9,right,1,0.6922,,,,,,stim/centre.png,stim/incongLeft.png,right,180,,001,2022-04-26_01h03.59.284,ANT,2021.2.3,Win32,59.70862193,,,1,22,70,22,1,,,,,
1.2,left,1,0.6707,,,,,,stim/centre.png,stim/incongRight.png,left,180,,001,2022-04-26_01h03.59.284,ANT,2021.2.3,Win32,59.70862193,,,1,23,71,30,1,,,,,
0.45,left,1,0.4889,,,,,,stim/centre.png,stim/neutralRight.png,left,180,,001,2022-04-26_01h03.59.284,ANT,2021.2.3,Win32,59.70862193,,,1,24,72,46,1,,,,,
0.5,left,1,0.4845,,,,,,stim/both.png,stim/neutralRight.png,left,180,,001,2022-04-26_01h03.59.284,ANT,2021.2.3,Win32,59.70862193,,,1,25,73,45,1,,,,,
0.85,left,1,0.6087,,,,,,stim/centre.png,stim/congLeft.png,left,0,,001,2022-04-26_01h03.59.284,ANT,2021.2.3,Win32,59.70862193,,,1,26,74,2,1,,,,,
1.1,right,1,0.5148,,,,,,stim/centre.png,stim/congLeft.png,right,180,,001,2022-04-26_01h03.59.284,ANT,2021.2.3,Win32,59.70862193,,,1,27,75,6,1,,,,,
1.4,left,1,0.5979,,,,,,stim/blank.png,stim/neutralRight.png,left,180,,001,2022-04-26_01h03.59.284,ANT,2021.2.3,Win32,59.70862193,,,1,28,76,47,1,,,,,
1.55,right,1,0.5742,,,,,,stim/blank.png,stim/neutralLeft.png,right,180,,001,2022-04-26_01h03.59.284,ANT,2021.2.3,Win32,59.70862193,,,1,29,77,39,1,,,,,
1.35,right,1,0.5713,,,,,,stim/upper.png,stim/incongRight.png,right,0,,001,2022-04-26_01h03.59.284,ANT,2021.2.3,Win32,59.70862193,,,1,30,78,24,1,,,,,
1.05,left,1,0.6308,,,,,,stim/blank.png,stim/congLeft.png,left,0,,001,2022-04-26_01h03.59.284,ANT,2021.2.3,Win32,59.70862193,,,1,31,79,3,1,,,,,
1.05,right,1,0.5163,,,,,,stim/both.png,stim/congLeft.png,right,180,,001,2022-04-26_01h03.59.284,ANT,2021.2.3,Win32,59.70862193,,,1,32,80,5,1,,,,,
0.45,left,0,0.5153,,,,,,stim/centre.png,stim/incongRight.png,right,0,,001,2022-04-26_01h03.59.284,ANT,2021.2.3,Win32,59.70862193,,,1,33,81,26,1,,,,,
0.45,left,1,0.8012,,,,,,stim/both.png,stim/incongLeft.png,left,0,,001,2022-04-26_01h03.59.284,ANT,2021.2.3,Win32,59.70862193,,,1,34,82,17,1,,,,,
1.15,right,1,0.5326,,,,,,stim/upper.png,stim/neutralRight.png,right,0,,001,2022-04-26_01h03.59.284,ANT,2021.2.3,Win32,59.70862193,,,1,35,83,40,1,,,,,
1.25,left,1,0.4835,,,,,,stim/both.png,stim/congLeft.png,left,0,,001,2022-04-26_01h03.59.284,ANT,2021.2.3,Win32,59.70862193,,,1,36,84,1,1,,,,,
1.45,right,1,0.5883,,,,,,stim/both.png,stim/incongLeft.png,right,180,,001,2022-04-26_01h03.59.284,ANT,2021.2.3,Win32,59.70862193,,,1,37,85,21,1,,,,,
1.4,left,1,0.5409,,,,,,stim/lower.png,stim/incongRight.png,left,180,,001,2022-04-26_01h03.59.284,ANT,2021.2.3,Win32,59.70862193,,,1,38,86,28,1,,,,,
1.4,right,1,0.483,,,,,,stim/both.png,stim/neutralRight.png,right,0,,001,2022-04-26_01h03.59.284,ANT,2021.2.3,Win32,59.70862193,,,1,39,87,41,1,,,,,
1.55,right,1,0.8143,,,,,,stim/both.png,stim/incongRight.png,right,0,,001,2022-04-26_01h03.59.284,ANT,2021.2.3,Win32,59.70862193,,,1,40,88,25,1,,,,,
1.45,left,1,0.8263,,,,,,stim/blank.png,stim/incongLeft.png,left,0,,001,2022-04-26_01h03.59.284,ANT,2021.2.3,Win32,59.70862193,,,1,41,89,19,1,,,,,
1.3,left,1,0.4276,,,,,,stim/both.png,stim/neutralLeft.png,left,0,,001,2022-04-26_01h03.59.284,ANT,2021.2.3,Win32,59.70862193,,,1,42,90,33,1,,,,,
1.4,left,1,0.5602,,,,,,stim/centre.png,stim/incongLeft.png,left,0,,001,2022-04-26_01h03.59.284,ANT,2021.2.3,Win32,59.70862193,,,1,43,91,18,1,,,,,
0.4,right,1,0.5555,,,,,,stim/blank.png,stim/congRight.png,right,0,,001,2022-04-26_01h03.59.284,ANT,2021.2.3,Win32,59.70862193,,,1,44,92,11,1,,,,,
0.7,left,1,0.801,,,,,,stim/centre.png,stim/congRight.png,left,180,,001,2022-04-26_01h03.59.284,ANT,2021.2.3,Win32,59.70862193,,,1,45,93,14,1,,,,,
1.3,left,1,0.4416,,,,,,stim/upper.png,stim/neutralLeft.png,left,0,,001,2022-04-26_01h03.59.284,ANT,2021.2.3,Win32,59.70862193,,,1,46,94,32,1,,,,,
1.1,right,1,0.5604,,,,,,stim/blank.png,stim/neutralRight.png,right,0,,001,2022-04-26_01h03.59.284,ANT,2021.2.3,Win32,59.70862193,,,1,47,95,43,1,,,,,
,,,,,,,,,,,,,,001,2022-04-26_01h03.59.284,ANT,2021.2.3,Win32,59.70862193,,,,,,,,0,0,0,0,1
1.1,left,1,0.4697,,,,,,stim/lower.png,stim/neutralRight.png,left,180,,001,2022-04-26_01h03.59.284,ANT,2021.2.3,Win32,59.70862193,,,0,0,0,44,1,,,,,
1.25,right,0,0.6236,,,,,,stim/centre.png,stim/incongRight.png,left,180,,001,2022-04-26_01h03.59.284,ANT,2021.2.3,Win32,59.70862193,,,0,1,1,30,1,,,,,
0.5,right,1,0.5399,,,,,,stim/both.png,stim/neutralLeft.png,right,180,,001,2022-04-26_01h03.59.284,ANT,2021.2.3,Win32,59.70862193,,,0,2,2,37,1,,,,,
1.4,right,1,0.5391,,,,,,stim/blank.png,stim/neutralLeft.png,right,180,,001,2022-04-26_01h03.59.284,ANT,2021.2.3,Win32,59.70862193,,,0,3,3,39,1,,,,,
1,right,1,0.6813,,,,,,stim/upper.png,stim/neutralRight.png,right,0,,001,2022-04-26_01h03.59.284,ANT,2021.2.3,Win32,59.70862193,,,0,4,4,40,1,,,,,
0.9,right,1,0.5694,,,,,,stim/centre.png,stim/incongLeft.png,right,180,,001,2022-04-26_01h03.59.284,ANT,2021.2.3,Win32,59.70862193,,,0,5,5,22,1,,,,,
0.75,right,0,0.6239,,,,,,stim/both.png,stim/incongLeft.png,left,0,,001,2022-04-26_01h03.59.284,ANT,2021.2.3,Win32,59.70862193,,,0,6,6,17,1,,,,,
1.25,right,1,0.5491,,,,,,stim/blank.png,stim/congLeft.png,right,180,,001,2022-04-26_01h03.59.284,ANT,2021.2.3,Win32,59.70862193,,,0,7,7,7,1,,,,,
0.5,right,1,0.5924,,,,,,stim/centre.png,stim/congRight.png,right,0,,001,2022-04-26_01h03.59.284,ANT,2021.2.3,Win32,59.70862193,,,0,8,8,10,1,,,,,
1.35,right,1,0.4836,,,,,,stim/centre.png,stim/neutralLeft.png,right,180,,001,2022-04-26_01h03.59.284,ANT,2021.2.3,Win32,59.70862193,,,0,9,9,38,1,,,,,
1.4,left,1,0.5562,,,,,,stim/both.png,stim/congRight.png,left,180,,001,2022-04-26_01h03.59.284,ANT,2021.2.3,Win32,59.70862193,,,0,10,10,13,1,,,,,
1.4,left,1,0.5028,,,,,,stim/centre.png,stim/congLeft.png,left,0,,001,2022-04-26_01h03.59.284,ANT,2021.2.3,Win32,59.70862193,,,0,11,11,2,1,,,,,
1.25,right,1,0.7307,,,,,,stim/blank.png,stim/incongRight.png,right,0,,001,2022-04-26_01h03.59.284,ANT,2021.2.3,Win32,59.70862193,,,0,12,12,27,1,,,,,
1.05,left,1,0.831,,,,,,stim/blank.png,stim/congLeft.png,left,0,,001,2022-04-26_01h03.59.284,ANT,2021.2.3,Win32,59.70862193,,,0,13,13,3,1,,,,,
0.85,left,1,0.6877,,,,,,stim/blank.png,stim/neutralLeft.png,left,0,,001,2022-04-26_01h03.59.284,ANT,2021.2.3,Win32,59.70862193,,,0,14,14,35,1,,,,,
1,left,1,0.6329,,,,,,stim/blank.png,stim/incongRight.png,left,180,,001,2022-04-26_01h03.59.284,ANT,2021.2.3,Win32,59.70862193,,,0,15,15,31,1,,,,,
0.45,right,1,0.5312,,,,,,stim/lower.png,stim/congLeft.png,right,180,,001,2022-04-26_01h03.59.284,ANT,2021.2.3,Win32,59.70862193,,,0,16,16,4,1,,,,,
0.55,right,1,0.9553,,,,,,stim/both.png,stim/neutralRight.png,right,0,,001,2022-04-26_01h03.59.284,ANT,2021.2.3,Win32,59.70862193,,,0,17,17,41,1,,,,,
1.15,right,1,0.6235,,,,,,stim/both.png,stim/incongLeft.png,right,180,,001,2022-04-26_01h03.59.284,ANT,2021.2.3,Win32,59.70862193,,,0,18,18,21,1,,,,,
1.5,left,1,0.4552,,,,,,stim/both.png,stim/congLeft.png,left,0,,001,2022-04-26_01h03.59.284,ANT,2021.2.3,Win32,59.70862193,,,0,19,19,1,1,,,,,
0.55,left,1,0.6367,,,,,,stim/upper.png,stim/neutralLeft.png,left,0,,001,2022-04-26_01h03.59.284,ANT,2021.2.3,Win32,59.70862193,,,0,20,20,32,1,,,,,
1.1,right,1,0.5833,,,,,,stim/lower.png,stim/neutralLeft.png,right,180,,001,2022-04-26_01h03.59.284,ANT,2021.2.3,Win32,59.70862193,,,0,21,21,36,1,,,,,
1,right,1,0.8497,,,,,,stim/upper.png,stim/incongRight.png,right,0,,001,2022-04-26_01h03.59.284,ANT,2021.2.3,Win32,59.70862193,,,0,22,22,24,1,,,,,
0.5,right,1,0.6186,,,,,,stim/blank.png,stim/congRight.png,right,0,,001,2022-04-26_01h03.59.284,ANT,2021.2.3,Win32,59.70862193,,,0,23,23,11,1,,,,,
0.7,left,1,0.693,,,,,,stim/both.png,stim/neutralLeft.png,left,0,,001,2022-04-26_01h03.59.284,ANT,2021.2.3,Win32,59.70862193,,,0,24,24,33,1,,,,,
1.1,left,1,0.4999,,,,,,stim/centre.png,stim/congRight.png,left,180,,001,2022-04-26_01h03.59.284,ANT,2021.2.3,Win32,59.70862193,,,0,25,25,14,1,,,,,
1.35,right,1,0.5307,,,,,,stim/centre.png,stim/congLeft.png,right,180,,001,2022-04-26_01h03.59.284,ANT,2021.2.3,Win32,59.70862193,,,0,26,26,6,1,,,,,
0.55,right,1,0.6061,,,,,,stim/blank.png,stim/neutralRight.png,right,0,,001,2022-04-26_01h03.59.284,ANT,2021.2.3,Win32,59.70862193,,,0,27,27,43,1,,,,,
0.8,left,1,0.5096,,,,,,stim/both.png,stim/neutralRight.png,left,180,,001,2022-04-26_01h03.59.284,ANT,2021.2.3,Win32,59.70862193,,,0,28,28,45,1,,,,,
0.6,right,1,0.5817,,,,,,stim/upper.png,stim/congRight.png,right,0,,001,2022-04-26_01h03.59.284,ANT,2021.2.3,Win32,59.70862193,,,0,29,29,8,1,,,,,
1.3,right,1,1.1839,,,,,,stim/centre.png,stim/incongRight.png,right,0,,001,2022-04-26_01h03.59.284,ANT,2021.2.3,Win32,59.70862193,,,0,30,30,26,1,,,,,
1.35,left,1,0.4422,,,,,,stim/lower.png,stim/congRight.png,left,180,,001,2022-04-26_01h03.59.284,ANT,2021.2.3,Win32,59.70862193,,,0,31,31,12,1,,,,,
1.55,right,1,0.8632,,,,,,stim/both.png,stim/incongRight.png,right,0,,001,2022-04-26_01h03.59.284,ANT,2021.2.3,Win32,59.70862193,,,0,32,32,25,1,,,,,
0.4,right,1,0.5643,,,,,,stim/both.png,stim/congRight.png,right,0,,001,2022-04-26_01h03.59.284,ANT,2021.2.3,Win32,59.70862193,,,0,33,33,9,1,,,,,
0.9,left,1,0.4977,,,,,,stim/blank.png,stim/neutralRight.png,left,180,,001,2022-04-26_01h03.59.284,ANT,2021.2.3,Win32,59.70862193,,,0,34,34,47,1,,,,,
1.1,left,1,0.5671,,,,,,stim/lower.png,stim/incongRight.png,left,180,,001,2022-04-26_01h03.59.284,ANT,2021.2.3,Win32,59.70862193,,,0,35,35,28,1,,,,,
0.9,left,1,0.4577,,,,,,stim/centre.png,stim/neutralRight.png,left,180,,001,2022-04-26_01h03.59.284,ANT,2021.2.3,Win32,59.70862193,,,0,36,36,46,1,,,,,
0.5,left,1,0.7158,,,,,,stim/blank.png,stim/incongLeft.png,left,0,,001,2022-04-26_01h03.59.284,ANT,2021.2.3,Win32,59.70862193,,,0,37,37,19,1,,,,,
0.6,left,1,0.485,,,,,,stim/centre.png,stim/neutralLeft.png,left,0,,001,2022-04-26_01h03.59.284,ANT,2021.2.3,Win32,59.70862193,,,0,38,38,34,1,,,,,
1.3,left,1,0.5248,,,,,,stim/upper.png,stim/congLeft.png,left,0,,001,2022-04-26_01h03.59.284,ANT,2021.2.3,Win32,59.70862193,,,0,39,39,0,1,,,,,
0.45,right,1,0.5491,,,,,,stim/centre.png,stim/neutralRight.png,right,0,,001,2022-04-26_01h03.59.284,ANT,2021.2.3,Win32,59.70862193,,,0,40,40,42,1,,,,,
0.6,left,1,0.6355,,,,,,stim/centre.png,stim/incongLeft.png,left,0,,001,2022-04-26_01h03.59.284,ANT,2021.2.3,Win32,59.70862193,,,0,41,41,18,1,,,,,
0.45,right,1,0.435,,,,,,stim/both.png,stim/congLeft.png,right,180,,001,2022-04-26_01h03.59.284,ANT,2021.2.3,Win32,59.70862193,,,0,42,42,5,1,,,,,
1.4,left,1,0.5146,,,,,,stim/both.png,stim/incongRight.png,left,180,,001,2022-04-26_01h03.59.284,ANT,2021.2.3,Win32,59.70862193,,,0,43,43,29,1,,,,,
0.85,left,1,0.6572,,,,,,stim/upper.png,stim/incongLeft.png,left,0,,001,2022-04-26_01h03.59.284,ANT,2021.2.3,Win32,59.70862193,,,0,44,44,16,1,,,,,
0.85,right,1,0.5639,,,,,,stim/lower.png,stim/incongLeft.png,right,180,,001,2022-04-26_01h03.59.284,ANT,2021.2.3,Win32,59.70862193,,,0,45,45,20,1,,,,,
1.45,right,1,0.5565,,,,,,stim/blank.png,stim/incongLeft.png,right,180,,001,2022-04-26_01h03.59.284,ANT,2021.2.3,Win32,59.70862193,,,0,46,46,23,1,,,,,
0.95,left,1,0.5438,,,,,,stim/blank.png,stim/congRight.png,left,180,,001,2022-04-26_01h03.59.284,ANT,2021.2.3,Win32,59.70862193,,,0,47,47,15,1,,,,,
0.6,left,1,0.598,,,,,,stim/blank.png,stim/congLeft.png,left,0,,001,2022-04-26_01h03.59.284,ANT,2021.2.3,Win32,59.70862193,,,1,0,48,3,1,,,,,
0.6,left,1,0.6483,,,,,,stim/centre.png,stim/neutralLeft.png,left,0,,001,2022-04-26_01h03.59.284,ANT,2021.2.3,Win32,59.70862193,,,1,1,49,34,1,,,,,
1.3,left,1,1.0728,,,,,,stim/both.png,stim/incongLeft.png,left,0,,001,2022-04-26_01h03.59.284,ANT,2021.2.3,Win32,59.70862193,,,1,2,50,17,1,,,,,
1.45,left,1,0.6646,,,,,,stim/blank.png,stim/incongRight.png,left,180,,001,2022-04-26_01h03.59.284,ANT,2021.2.3,Win32,59.70862193,,,1,3,51,31,1,,,,,
1.4,right,1,0.4584,,,,,,stim/lower.png,stim/congLeft.png,right,180,,001,2022-04-26_01h03.59.284,ANT,2021.2.3,Win32,59.70862193,,,1,4,52,4,1,,,,,
0.55,left,1,0.4985,,,,,,stim/centre.png,stim/congRight.png,left,180,,001,2022-04-26_01h03.59.284,ANT,2021.2.3,Win32,59.70862193,,,1,5,53,14,1,,,,,
1.25,right,1,0.4356,,,,,,stim/lower.png,stim/neutralLeft.png,right,180,,001,2022-04-26_01h03.59.284,ANT,2021.2.3,Win32,59.70862193,,,1,6,54,36,1,,,,,
0.7,right,1,0.5051,,,,,,stim/both.png,stim/congRight.png,right,0,,001,2022-04-26_01h03.59.284,ANT,2021.2.3,Win32,59.70862193,,,1,7,55,9,1,,,,,
1.4,left,1,0.4391,,,,,,stim/upper.png,stim/congLeft.png,left,0,,001,2022-04-26_01h03.59.284,ANT,2021.2.3,Win32,59.70862193,,,1,8,56,0,1,,,,,
1.55,right,1,0.4772,,,,,,stim/blank.png,stim/neutralRight.png,right,0,,001,2022-04-26_01h03.59.284,ANT,2021.2.3,Win32,59.70862193,,,1,9,57,43,1,,,,,
1,left,1,0.7513,,,,,,stim/both.png,stim/incongRight.png,left,180,,001,2022-04-26_01h03.59.284,ANT,2021.2.3,Win32,59.70862193,,,1,10,58,29,1,,,,,
1.2,right,1,0.4841,,,,,,stim/blank.png,stim/congRight.png,right,0,,001,2022-04-26_01h03.59.284,ANT,2021.2.3,Win32,59.70862193,,,1,11,59,11,1,,,,,
0.55,left,1,0.5019,,,,,,stim/lower.png,stim/incongRight.png,left,180,,001,2022-04-26_01h03.59.284,ANT,2021.2.3,Win32,59.70862193,,,1,12,60,28,1,,,,,
1.55,right,1,0.6039,,,,,,stim/centre.png,stim/incongRight.png,right,0,,001,2022-04-26_01h03.59.284,ANT,2021.2.3,Win32,59.70862193,,,1,13,61,26,1,,,,,
1.4,right,1,0.5395,,,,,,stim/centre.png,stim/neutralRight.png,right,0,,001,2022-04-26_01h03.59.284,ANT,2021.2.3,Win32,59.70862193,,,1,14,62,42,1,,,,,
0.85,left,1,0.4103,,,,,,stim/centre.png,stim/neutralRight.png,left,180,,001,2022-04-26_01h03.59.284,ANT,2021.2.3,Win32,59.70862193,,,1,15,63,46,1,,,,,
1.35,right,1,0.5486,,,,,,stim/centre.png,stim/neutralLeft.png,right,180,,001,2022-04-26_01h03.59.284,ANT,2021.2.3,Win32,59.70862193,,,1,16,64,38,1,,,,,
0.7,right,1,0.4839,,,,,,stim/centre.png,stim/congRight.png,right,0,,001,2022-04-26_01h03.59.284,ANT,2021.2.3,Win32,59.70862193,,,1,17,65,10,1,,,,,
1.15,left,1,0.6167,,,,,,stim/lower.png,stim/neutralRight.png,left,180,,001,2022-04-26_01h03.59.284,ANT,2021.2.3,Win32,59.70862193,,,1,18,66,44,1,,,,,
0.45,right,0,0.4814,,,,,,stim/blank.png,stim/incongLeft.png,left,0,,001,2022-04-26_01h03.59.284,ANT,2021.2.3,Win32,59.70862193,,,1,19,67,19,1,,,,,
1,right,1,0.6479,,,,,,stim/both.png,stim/incongRight.png,right,0,,001,2022-04-26_01h03.59.284,ANT,2021.2.3,Win32,59.70862193,,,1,20,68,25,1,,,,,
0.5,right,1,0.5896,,,,,,stim/both.png,stim/neutralRight.png,right,0,,001,2022-04-26_01h03.59.284,ANT,2021.2.3,Win32,59.70862193,,,1,21,69,41,1,,,,,
0.75,right,1,0.5812,,,,,,stim/upper.png,stim/incongRight.png,right,0,,001,2022-04-26_01h03.59.284,ANT,2021.2.3,Win32,59.70862193,,,1,22,70,24,1,,,,,
1.05,,0,,,,,,,stim/upper.png,stim/congRight.png,right,0,,001,2022-04-26_01h03.59.284,ANT,2021.2.3,Win32,59.70862193,,,1,23,71,8,1,,,,,
1.5,right,1,0.506,,,,,,stim/centre.png,stim/congLeft.png,right,180,,001,2022-04-26_01h03.59.284,ANT,2021.2.3,Win32,59.70862193,,,1,24,72,6,1,,,,,
0.45,left,1,0.5982,,,,,,stim/blank.png,stim/neutralLeft.png,left,0,,001,2022-04-26_01h03.59.284,ANT,2021.2.3,Win32,59.70862193,,,1,25,73,35,1,,,,,
1.05,right,1,0.6581,,,,,,stim/centre.png,stim/incongLeft.png,right,180,,001,2022-04-26_01h03.59.284,ANT,2021.2.3,Win32,59.70862193,,,1,26,74,22,1,,,,,
0.75,right,1,0.6168,,,,,,stim/both.png,stim/incongLeft.png,right,180,,001,2022-04-26_01h03.59.284,ANT,2021.2.3,Win32,59.70862193,,,1,27,75,21,1,,,,,
1.4,left,1,0.5999,,,,,,stim/both.png,stim/congRight.png,left,180,,001,2022-04-26_01h03.59.284,ANT,2021.2.3,Win32,59.70862193,,,1,28,76,13,1,,,,,
0.5,right,1,0.5685,,,,,,stim/blank.png,stim/incongLeft.png,right,180,,001,2022-04-26_01h03.59.284,ANT,2021.2.3,Win32,59.70862193,,,1,29,77,23,1,,,,,
1.2,left,1,0.5006,,,,,,stim/both.png,stim/congLeft.png,left,0,,001,2022-04-26_01h03.59.284,ANT,2021.2.3,Win32,59.70862193,,,1,30,78,1,1,,,,,
1.25,left,1,0.5331,,,,,,stim/blank.png,stim/neutralRight.png,left,180,,001,2022-04-26_01h03.59.284,ANT,2021.2.3,Win32,59.70862193,,,1,31,79,47,1,,,,,
1.1,left,1,0.4646,,,,,,stim/blank.png,stim/congRight.png,left,180,,001,2022-04-26_01h03.59.284,ANT,2021.2.3,Win32,59.70862193,,,1,32,80,15,1,,,,,
1.35,left,1,0.781,,,,,,stim/centre.png,stim/incongRight.png,left,180,,001,2022-04-26_01h03.59.284,ANT,2021.2.3,Win32,59.70862193,,,1,33,81,30,1,,,,,
0.55,right,1,0.6309,,,,,,stim/blank.png,stim/incongRight.png,right,0,,001,2022-04-26_01h03.59.284,ANT,2021.2.3,Win32,59.70862193,,,1,34,82,27,1,,,,,
0.7,right,1,0.4396,,,,,,stim/both.png,stim/congLeft.png,right,180,,001,2022-04-26_01h03.59.284,ANT,2021.2.3,Win32,59.70862193,,,1,35,83,5,1,,,,,
1.3,left,1,0.6228,,,,,,stim/both.png,stim/neutralLeft.png,left,0,,001,2022-04-26_01h03.59.284,ANT,2021.2.3,Win32,59.70862193,,,1,36,84,33,1,,,,,
0.8,left,1,0.4814,,,,,,stim/both.png,stim/neutralRight.png,left,180,,001,2022-04-26_01h03.59.284,ANT,2021.2.3,Win32,59.70862193,,,1,37,85,45,1,,,,,
0.8,left,1,0.5022,,,,,,stim/centre.png,stim/congLeft.png,left,0,,001,2022-04-26_01h03.59.284,ANT,2021.2.3,Win32,59.70862193,,,1,38,86,2,1,,,,,
1.1,left,1,0.4382,,,,,,stim/upper.png,stim/neutralLeft.png,left,0,,001,2022-04-26_01h03.59.284,ANT,2021.2.3,Win32,59.70862193,,,1,39,87,32,1,,,,,
0.85,left,1,0.6899,,,,,,stim/centre.png,stim/incongLeft.png,left,0,,001,2022-04-26_01h03.59.284,ANT,2021.2.3,Win32,59.70862193,,,1,40,88,18,1,,,,,
1.45,right,1,0.5556,,,,,,stim/both.png,stim/neutralLeft.png,right,180,,001,2022-04-26_01h03.59.284,ANT,2021.2.3,Win32,59.70862193,,,1,41,89,37,1,,,,,
0.8,left,1,0.5644,,,,,,stim/upper.png,stim/incongLeft.png,left,0,,001,2022-04-26_01h03.59.284,ANT,2021.2.3,Win32,59.70862193,,,1,42,90,16,1,,,,,
0.4,right,1,0.5035,,,,,,stim/upper.png,stim/neutralRight.png,right,0,,001,2022-04-26_01h03.59.284,ANT,2021.2.3,Win32,59.70862193,,,1,43,91,40,1,,,,,
1.35,left,0,0.4623,,,,,,stim/lower.png,stim/incongLeft.png,right,180,,001,2022-04-26_01h03.59.284,ANT,2021.2.3,Win32,59.70862193,,,1,44,92,20,1,,,,,
0.95,right,1,0.5966,,,,,,stim/blank.png,stim/congLeft.png,right,180,,001,2022-04-26_01h03.59.284,ANT,2021.2.3,Win32,59.70862193,,,1,45,93,7,1,,,,,
1.1,right,1,0.5243,,,,,,stim/blank.png,stim/neutralLeft.png,right,180,,001,2022-04-26_01h03.59.284,ANT,2021.2.3,Win32,59.70862193,,,1,46,94,39,1,,,,,
0.75,left,1,0.4756,,,,,,stim/lower.png,stim/congRight.png,left,180,,001,2022-04-26_01h03.59.284,ANT,2021.2.3,Win32,59.70862193,,,1,47,95,12,1,,,,,
,,,,,,,,,,,,,,001,2022-04-26_01h03.59.284,ANT,2021.2.3,Win32,59.70862193,,,,,,,,1,0,1,0,1
0.4,left,1,0.624,,,,,,stim/upper.png,stim/incongLeft.png,left,0,,001,2022-04-26_01h03.59.284,ANT,2021.2.3,Win32,59.70862193,,,0,0,0,16,1,,,,,
0.95,right,1,0.4312,,,,,,stim/lower.png,stim/congLeft.png,right,180,,001,2022-04-26_01h03.59.284,ANT,2021.2.3,Win32,59.70862193,,,0,1,1,4,1,,,,,
0.6,right,1,0.5036,,,,,,stim/centre.png,stim/congRight.png,right,0,,001,2022-04-26_01h03.59.284,ANT,2021.2.3,Win32,59.70862193,,,0,2,2,10,1,,,,,
1.45,right,1,0.4644,,,,,,stim/lower.png,stim/neutralLeft.png,right,180,,001,2022-04-26_01h03.59.284,ANT,2021.2.3,Win32,59.70862193,,,0,3,3,36,1,,,,,
0.6,right,1,0.3979,,,,,,stim/centre.png,stim/neutralRight.png,right,0,,001,2022-04-26_01h03.59.284,ANT,2021.2.3,Win32,59.70862193,,,0,4,4,42,1,,,,,
0.6,right,1,0.4145,,,,,,stim/blank.png,stim/congLeft.png,right,180,,001,2022-04-26_01h03.59.284,ANT,2021.2.3,Win32,59.70862193,,,0,5,5,7,1,,,,,
0.95,left,1,0.5431,,,,,,stim/blank.png,stim/congLeft.png,left,0,,001,2022-04-26_01h03.59.284,ANT,2021.2.3,Win32,59.70862193,,,0,6,6,3,1,,,,,
1.35,right,1,0.7281,,,,,,stim/blank.png,stim/incongRight.png,right,0,,001,2022-04-26_01h03.59.284,ANT,2021.2.3,Win32,59.70862193,,,0,7,7,27,1,,,,,
1.25,left,1,0.5475,,,,,,stim/both.png,stim/neutralRight.png,left,180,,001,2022-04-26_01h03.59.284,ANT,2021.2.3,Win32,59.70862193,,,0,8,8,45,1,,,,,
0.4,left,1,1.055,,,,,,stim/both.png,stim/incongRight.png,left,180,,001,2022-04-26_01h03.59.284,ANT,2021.2.3,Win32,59.70862193,,,0,9,9,29,1,,,,,
0.75,right,1,0.7811,,,,,,stim/both.png,stim/incongRight.png,right,0,,001,2022-04-26_01h03.59.284,ANT,2021.2.3,Win32,59.70862193,,,0,10,10,25,1,,,,,
1.55,right,1,0.768,,,,,,stim/upper.png,stim/incongRight.png,right,0,,001,2022-04-26_01h03.59.284,ANT,2021.2.3,Win32,59.70862193,,,0,11,11,24,1,,,,,
1.1,right,1,0.5428,,,,,,stim/both.png,stim/congLeft.png,right,180,,001,2022-04-26_01h03.59.284,ANT,2021.2.3,Win32,59.70862193,,,0,12,12,5,1,,,,,
1.45,left,1,0.4919,,,,,,stim/upper.png,stim/neutralLeft.png,left,0,,001,2022-04-26_01h03.59.284,ANT,2021.2.3,Win32,59.70862193,,,0,13,13,32,1,,,,,
0.75,left,1,0.7133,,,,,,stim/centre.png,stim/incongRight.png,left,180,,001,2022-04-26_01h03.59.284,ANT,2021.2.3,Win32,59.70862193,,,0,14,14,30,1,,,,,
1.35,left,1,0.5041,,,,,,stim/both.png,stim/neutralLeft.png,left,0,,001,2022-04-26_01h03.59.284,ANT,2021.2.3,Win32,59.70862193,,,0,15,15,33,1,,,,,
1.45,left,1,0.4977,,,,,,stim/lower.png,stim/neutralRight.png,left,180,,001,2022-04-26_01h03.59.284,ANT,2021.2.3,Win32,59.70862193,,,0,16,16,44,1,,,,,
0.95,left,1,0.6716,,,,,,stim/centre.png,stim/incongLeft.png,left,0,,001,2022-04-26_01h03.59.284,ANT,2021.2.3,Win32,59.70862193,,,0,17,17,18,1,,,,,
0.4,left,1,0.5974,,,,,,stim/both.png,stim/congLeft.png,left,0,,001,2022-04-26_01h03.59.284,ANT,2021.2.3,Win32,59.70862193,,,0,18,18,1,1,,,,,
1.1,right,1,0.6906,,,,,,stim/blank.png,stim/incongLeft.png,right,180,,001,2022-04-26_01h03.59.284,ANT,2021.2.3,Win32,59.70862193,,,0,19,19,23,1,,,,,
0.9,left,1,0.6594,,,,,,stim/blank.png,stim/incongLeft.png,left,0,,001,2022-04-26_01h03.59.284,ANT,2021.2.3,Win32,59.70862193,,,0,20,20,19,1,,,,,
1.1,left,1,0.6386,,,,,,stim/blank.png,stim/neutralLeft.png,left,0,,001,2022-04-26_01h03.59.284,ANT,2021.2.3,Win32,59.70862193,,,0,21,21,35,1,,,,,
1.3,right,1,0.5974,,,,,,stim/lower.png,stim/incongLeft.png,right,180,,001,2022-04-26_01h03.59.284,ANT,2021.2.3,Win32,59.70862193,,,0,22,22,20,1,,,,,
1.1,right,1,0.6202,,,,,,stim/blank.png,stim/neutralRight.png,right,0,,001,2022-04-26_01h03.59.284,ANT,2021.2.3,Win32,59.70862193,,,0,23,23,43,1,,,,,
1.25,right,1,0.5714,,,,,,stim/centre.png,stim/congLeft.png,right,180,,001,2022-04-26_01h03.59.284,ANT,2021.2.3,Win32,59.70862193,,,0,24,24,6,1,,,,,
1.35,right,1,0.4913,,,,,,stim/both.png,stim/congRight.png,right,0,,001,2022-04-26_01h03.59.284,ANT,2021.2.3,Win32,59.70862193,,,0,25,25,9,1,,,,,
0.75,left,1,0.7738,,,,,,stim/blank.png,stim/incongRight.png,left,180,,001,2022-04-26_01h03.59.284,ANT,2021.2.3,Win32,59.70862193,,,0,26,26,31,1,,,,,
0.8,left,1,0.5983,,,,,,stim/centre.png,stim/congLeft.png,left,0,,001,2022-04-26_01h03.59.284,ANT,2021.2.3,Win32,59.70862193,,,0,27,27,2,1,,,,,
0.55,right,1,0.5149,,,,,,stim/centre.png,stim/neutralLeft.png,right,180,,001,2022-04-26_01h03.59.284,ANT,2021.2.3,Win32,59.70862193,,,0,28,28,38,1,,,,,
1.25,left,1,0.5243,,,,,,stim/both.png,stim/congRight.png,left,180,,001,2022-04-26_01h03.59.284,ANT,2021.2.3,Win32,59.70862193,,,0,29,29,13,1,,,,,
0.5,left,1,0.4587,,,,,,stim/centre.png,stim/congRight.png,left,180,,001,2022-04-26_01h03.59.284,ANT,2021.2.3,Win32,59.70862193,,,0,30,30,14,1,,,,,
0.9,right,1,0.5696,,,,,,stim/both.png,stim/neutralRight.png,right,0,,001,2022-04-26_01h03.59.284,ANT,2021.2.3,Win32,59.70862193,,,0,31,31,41,1,,,,,
0.85,left,1,0.5191,,,,,,stim/lower.png,stim/congRight.png,left,180,,001,2022-04-26_01h03.59.284,ANT,2021.2.3,Win32,59.70862193,,,0,32,32,12,1,,,,,
0.85,left,1,0.5146,,,,,,stim/upper.png,stim/congLeft.png,left,0,,001,2022-04-26_01h03.59.284,ANT,2021.2.3,Win32,59.70862193,,,0,33,33,0,1,,,,,
0.45,right,1,0.5102,,,,,,stim/blank.png,stim/neutralLeft.png,right,180,,001,2022-04-26_01h03.59.284,ANT,2021.2.3,Win32,59.70862193,,,0,34,34,39,1,,,,,
0.45,left,1,0.4905,,,,,,stim/centre.png,stim/neutralLeft.png,left,0,,001,2022-04-26_01h03.59.284,ANT,2021.2.3,Win32,59.70862193,,,0,35,35,34,1,,,,,
0.7,right,1,0.7979,,,,,,stim/centre.png,stim/incongRight.png,right,0,,001,2022-04-26_01h03.59.284,ANT,2021.2.3,Win32,59.70862193,,,0,36,36,26,1,,,,,
0.55,left,1,0.604,,,,,,stim/lower.png,stim/incongRight.png,left,180,,001,2022-04-26_01h03.59.284,ANT,2021.2.3,Win32,59.70862193,,,0,37,37,28,1,,,,,
0.95,left,1,0.6093,,,,,,stim/blank.png,stim/neutralRight.png,left,180,,001,2022-04-26_01h03.59.284,ANT,2021.2.3,Win32,59.70862193,,,0,38,38,47,1,,,,,
1.05,right,1,0.4807,,,,,,stim/upper.png,stim/neutralRight.png,right,0,,001,2022-04-26_01h03.59.284,ANT,2021.2.3,Win32,59.70862193,,,0,39,39,40,1,,,,,
0.6,left,1,0.7804,,,,,,stim/both.png,stim/incongLeft.png,left,0,,001,2022-04-26_01h03.59.284,ANT,2021.2.3,Win32,59.70862193,,,0,40,40,17,1,,,,,
1,left,1,0.5593,,,,,,stim/blank.png,stim/congRight.png,left,180,,001,2022-04-26_01h03.59.284,ANT,2021.2.3,Win32,59.70862193,,,0,41,41,15,1,,,,,
0.4,right,1,0.6066,,,,,,stim/centre.png,stim/incongLeft.png,right,180,,001,2022-04-26_01h03.59.284,ANT,2021.2.3,Win32,59.70862193,,,0,42,42,22,1,,,,,
0.7,right,1,0.4808,,,,,,stim/blank.png,stim/congRight.png,right,0,,001,2022-04-26_01h03.59.284,ANT,2021.2.3,Win32,59.70862193,,,0,43,43,11,1,,,,,
0.85,right,1,0.4045,,,,,,stim/both.png,stim/neutralLeft.png,right,180,,001,2022-04-26_01h03.59.284,ANT,2021.2.3,Win32,59.70862193,,,0,44,44,37,1,,,,,
1.35,right,1,0.4856,,,,,,stim/upper.png,stim/congRight.png,right,0,,001,2022-04-26_01h03.59.284,ANT,2021.2.3,Win32,59.70862193,,,0,45,45,8,1,,,,,
1.4,right,1,0.6847,,,,,,stim/both.png,stim/incongLeft.png,right,180,,001,2022-04-26_01h03.59.284,ANT,2021.2.3,Win32,59.70862193,,,0,46,46,21,1,,,,,
0.8,left,1,0.5079,,,,,,stim/centre.png,stim/neutralRight.png,left,180,,001,2022-04-26_01h03.59.284,ANT,2021.2.3,Win32,59.70862193,,,0,47,47,46,1,,,,,
0.85,left,1,0.5467,,,,,,stim/lower.png,stim/neutralRight.png,left,180,,001,2022-04-26_01h03.59.284,ANT,2021.2.3,Win32,59.70862193,,,1,0,48,44,1,,,,,
1.2,left,1,0.5308,,,,,,stim/both.png,stim/congLeft.png,left,0,,001,2022-04-26_01h03.59.284,ANT,2021.2.3,Win32,59.70862193,,,1,1,49,1,1,,,,,
1.2,left,1,0.5386,,,,,,stim/both.png,stim/congRight.png,left,180,,001,2022-04-26_01h03.59.284,ANT,2021.2.3,Win32,59.70862193,,,1,2,50,13,1,,,,,
1.1,left,1,0.6916,,,,,,stim/blank.png,stim/incongLeft.png,left,0,,001,2022-04-26_01h03.59.284,ANT,2021.2.3,Win32,59.70862193,,,1,3,51,19,1,,,,,
1.2,right,1,0.5227,,,,,,stim/blank.png,stim/neutralLeft.png,right,180,,001,2022-04-26_01h03.59.284,ANT,2021.2.3,Win32,59.70862193,,,1,4,52,39,1,,,,,
0.85,left,1,0.6997,,,,,,stim/upper.png,stim/incongLeft.png,left,0,,001,2022-04-26_01h03.59.284,ANT,2021.2.3,Win32,59.70862193,,,1,5,53,16,1,,,,,
0.7,right,1,0.5001,,,,,,stim/upper.png,stim/congRight.png,right,0,,001,2022-04-26_01h03.59.284,ANT,2021.2.3,Win32,59.70862193,,,1,6,54,8,1,,,,,
1.4,right,1,0.5231,,,,,,stim/centre.png,stim/neutralLeft.png,right,180,,001,2022-04-26_01h03.59.284,ANT,2021.2.3,Win32,59.70862193,,,1,7,55,38,1,,,,,
1.55,left,1,0.5672,,,,,,stim/centre.png,stim/neutralLeft.png,left,0,,001,2022-04-26_01h03.59.284,ANT,2021.2.3,Win32,59.70862193,,,1,8,56,34,1,,,,,
1,right,1,0.5672,,,,,,stim/both.png,stim/neutralRight.png,right,0,,001,2022-04-26_01h03.59.284,ANT,2021.2.3,Win32,59.70862193,,,1,9,57,41,1,,,,,
1.05,left,1,0.7182,,,,,,stim/lower.png,stim/incongRight.png,left,180,,001,2022-04-26_01h03.59.284,ANT,2021.2.3,Win32,59.70862193,,,1,10,58,28,1,,,,,
1.55,right,1,0.536,,,,,,stim/lower.png,stim/neutralLeft.png,right,180,,001,2022-04-26_01h03.59.284,ANT,2021.2.3,Win32,59.70862193,,,1,11,59,36,1,,,,,
1,left,1,0.6434,,,,,,stim/centre.png,stim/incongRight.png,left,180,,001,2022-04-26_01h03.59.284,ANT,2021.2.3,Win32,59.70862193,,,1,12,60,30,1,,,,,
0.55,right,1,0.546,,,,,,stim/lower.png,stim/congLeft.png,right,180,,001,2022-04-26_01h03.59.284,ANT,2021.2.3,Win32,59.70862193,,,1,13,61,4,1,,,,,
0.7,left,1,0.5914,,,,,,stim/centre.png,stim/congLeft.png,left,0,,001,2022-04-26_01h03.59.284,ANT,2021.2.3,Win32,59.70862193,,,1,14,62,2,1,,,,,
0.8,right,1,0.6818,,,,,,stim/blank.png,stim/incongRight.png,right,0,,001,2022-04-26_01h03.59.284,ANT,2021.2.3,Win32,59.70862193,,,1,15,63,27,1,,,,,
0.8,right,1,0.6995,,,,,,stim/centre.png,stim/incongRight.png,right,0,,001,2022-04-26_01h03.59.284,ANT,2021.2.3,Win32,59.70862193,,,1,16,64,26,1,,,,,
0.45,right,1,0.5456,,,,,,stim/centre.png,stim/neutralRight.png,right,0,,001,2022-04-26_01h03.59.284,ANT,2021.2.3,Win32,59.70862193,,,1,17,65,42,1,,,,,
1.4,right,1,0.4834,,,,,,stim/centre.png,stim/congRight.png,right,0,,001,2022-04-26_01h03.59.284,ANT,2021.2.3,Win32,59.70862193,,,1,18,66,10,1,,,,,
1.05,right,1,0.4576,,,,,,stim/both.png,stim/neutralLeft.png,right,180,,001,2022-04-26_01h03.59.284,ANT,2021.2.3,Win32,59.70862193,,,1,19,67,37,1,,,,,
0.95,right,1,0.5858,,,,,,stim/centre.png,stim/incongLeft.png,right,180,,001,2022-04-26_01h03.59.284,ANT,2021.2.3,Win32,59.70862193,,,1,20,68,22,1,,,,,
0.45,right,1,0.6141,,,,,,stim/upper.png,stim/incongRight.png,right,0,,001,2022-04-26_01h03.59.284,ANT,2021.2.3,Win32,59.70862193,,,1,21,69,24,1,,,,,
1.5,left,1,0.5852,,,,,,stim/both.png,stim/incongRight.png,left,180,,001,2022-04-26_01h03.59.284,ANT,2021.2.3,Win32,59.70862193,,,1,22,70,29,1,,,,,
1,right,1,0.6192,,,,,,stim/centre.png,stim/congLeft.png,right,180,,001,2022-04-26_01h03.59.284,ANT,2021.2.3,Win32,59.70862193,,,1,23,71,6,1,,,,,
0.45,right,1,0.521,,,,,,stim/both.png,stim/congLeft.png,right,180,,001,2022-04-26_01h03.59.284,ANT,2021.2.3,Win32,59.70862193,,,1,24,72,5,1,,,,,
1.55,left,1,0.531,,,,,,stim/centre.png,stim/congRight.png,left,180,,001,2022-04-26_01h03.59.284,ANT,2021.2.3,Win32,59.70862193,,,1,25,73,14,1,,,,,
1.3,right,1,0.7597,,,,,,stim/blank.png,stim/incongLeft.png,right,180,,001,2022-04-26_01h03.59.284,ANT,2021.2.3,Win32,59.70862193,,,1,26,74,23,1,,,,,
1.35,right,1,0.5143,,,,,,stim/upper.png,stim/neutralRight.png,right,0,,001,2022-04-26_01h03.59.284,ANT,2021.2.3,Win32,59.70862193,,,1,27,75,40,1,,,,,
0.8,right,1,0.5748,,,,,,stim/both.png,stim/congRight.png,right,0,,001,2022-04-26_01h03.59.284,ANT,2021.2.3,Win32,59.70862193,,,1,28,76,9,1,,,,,
1,right,1,0.5586,,,,,,stim/both.png,stim/incongLeft.png,right,180,,001,2022-04-26_01h03.59.284,ANT,2021.2.3,Win32,59.70862193,,,1,29,77,21,1,,,,,
0.5,right,0,0.5837,,,,,,stim/both.png,stim/incongLeft.png,left,0,,001,2022-04-26_01h03.59.284,ANT,2021.2.3,Win32,59.70862193,,,1,30,78,17,1,,,,,
1.05,left,1,0.5754,,,,,,stim/blank.png,stim/congRight.png,left,180,,001,2022-04-26_01h03.59.284,ANT,2021.2.3,Win32,59.70862193,,,1,31,79,15,1,,,,,
0.7,right,1,0.6528,,,,,,stim/lower.png,stim/incongLeft.png,right,180,,001,2022-04-26_01h03.59.284,ANT,2021.2.3,Win32,59.70862193,,,1,32,80,20,1,,,,,
0.4,left,1,0.6375,,,,,,stim/lower.png,stim/congRight.png,left,180,,001,2022-04-26_01h03.59.284,ANT,2021.2.3,Win32,59.70862193,,,1,33,81,12,1,,,,,
1.35,left,1,0.7646,,,,,,stim/blank.png,stim/incongRight.png,left,180,,001,2022-04-26_01h03.59.284,ANT,2021.2.3,Win32,59.70862193,,,1,34,82,31,1,,,,,
1.4,left,1,0.5218,,,,,,stim/centre.png,stim/neutralRight.png,left,180,,001,2022-04-26_01h03.59.284,ANT,2021.2.3,Win32,59.70862193,,,1,35,83,46,1,,,,,
1.5,left,1,0.54,,,,,,stim/upper.png,stim/neutralLeft.png,left,0,,001,2022-04-26_01h03.59.284,ANT,2021.2.3,Win32,59.70862193,,,1,36,84,32,1,,,,,
0.9,left,1,0.5896,,,,,,stim/blank.png,stim/congLeft.png,left,0,,001,2022-04-26_01h03.59.284,ANT,2021.2.3,Win32,59.70862193,,,1,37,85,3,1,,,,,
0.6,left,1,0.4942,,,,,,stim/both.png,stim/neutralRight.png,left,180,,001,2022-04-26_01h03.59.284,ANT,2021.2.3,Win32,59.70862193,,,1,38,86,45,1,,,,,
1.3,right,1,0.6488,,,,,,stim/both.png,stim/incongRight.png,right,0,,001,2022-04-26_01h03.59.284,ANT,2021.2.3,Win32,59.70862193,,,1,39,87,25,1,,,,,
1.35,left,1,0.5093,,,,,,stim/blank.png,stim/neutralRight.png,left,180,,001,2022-04-26_01h03.59.284,ANT,2021.2.3,Win32,59.70862193,,,1,40,88,47,1,,,,,
1.2,right,1,0.5419,,,,,,stim/blank.png,stim/neutralRight.png,right,0,,001,2022-04-26_01h03.59.284,ANT,2021.2.3,Win32,59.70862193,,,1,41,89,43,1,,,,,
1.25,right,1,0.5588,,,,,,stim/blank.png,stim/congRight.png,right,0,,001,2022-04-26_01h03.59.284,ANT,2021.2.3,Win32,59.70862193,,,1,42,90,11,1,,,,,
0.75,left,1,0.6058,,,,,,stim/blank.png,stim/neutralLeft.png,left,0,,001,2022-04-26_01h03.59.284,ANT,2021.2.3,Win32,59.70862193,,,1,43,91,35,1,,,,,
0.9,left,1,0.5504,,,,,,stim/both.png,stim/neutralLeft.png,left,0,,001,2022-04-26_01h03.59.284,ANT,2021.2.3,Win32,59.70862193,,,1,44,92,33,1,,,,,
1.55,right,1,0.5344,,,,,,stim/blank.png,stim/congLeft.png,right,180,,001,2022-04-26_01h03.59.284,ANT,2021.2.3,Win32,59.70862193,,,1,45,93,7,1,,,,,
0.6,left,1,0.6497,,,,,,stim/centre.png,stim/incongLeft.png,left,0,,001,2022-04-26_01h03.59.284,ANT,2021.2.3,Win32,59.70862193,,,1,46,94,18,1,,,,,
0.5,left,1,0.514,,,,,,stim/upper.png,stim/congLeft.png,left,0,,001,2022-04-26_01h03.59.284,ANT,2021.2.3,Win32,59.70862193,,,1,47,95,0,1,,,,,
,,,,,,,,,,,,,,001,2022-04-26_01h03.59.284,ANT,2021.2.3,Win32,59.70862193,,,,,,,,2,0,2,0,1
