fixDuration,resp.keys,resp.corr,resp.rt,pracLoop.thisRepN,pracLoop.thisTrialN,pracLoop.thisN,pracLoop.thisIndex,pracLoop.ran,cue,tar,corrAns,targOrientation,participant,session,date,expName,psychopyVersion,OS,frameRate,instResp.keys,instResp.rt,mainLoop.thisRepN,mainLoop.thisTrialN,mainLoop.thisN,mainLoop.thisIndex,mainLoop.ran,blockLoop.thisRepN,blockLoop.thisTrialN,blockLoop.thisN,blockLoop.thisIndex,blockLoop.ran
1.4,right,1,1.0257,0,0,0,22,1,stim/centre.png,stim/incongLeft.png,right,180,WN4 9HH,001,2022-05-08_23h20.40.366,ANT,2021.2.3,Win32,60.26637739,,,,,,,,,,,,
0.9,left,1,0.6467,0,1,1,0,1,stim/upper.png,stim/congLeft.png,left,0,WN4 9HH,001,2022-05-08_23h20.40.366,ANT,2021.2.3,Win32,60.26637739,,,,,,,,,,,,
0.7,left,1,0.8475,0,2,2,16,1,stim/upper.png,stim/incongLeft.png,left,0,WN4 9HH,001,2022-05-08_23h20.40.366,ANT,2021.2.3,Win32,60.26637739,,,,,,,,,,,,
0.7,left,1,0.4362,0,3,3,2,1,stim/centre.png,stim/congLeft.png,left,0,WN4 9HH,001,2022-05-08_23h20.40.366,ANT,2021.2.3,Win32,60.26637739,,,,,,,,,,,,
1.4,right,1,0.5262,0,4,4,7,1,stim/blank.png,stim/congLeft.png,right,180,WN4 9HH,001,2022-05-08_23h20.40.366,ANT,2021.2.3,Win32,60.26637739,,,,,,,,,,,,
1.25,left,1,0.4259,0,5,5,14,1,stim/centre.png,stim/congRight.png,left,180,WN4 9HH,001,2022-05-08_23h20.40.366,ANT,2021.2.3,Win32,60.26637739,,,,,,,,,,,,
1.35,right,1,0.4685,0,6,6,10,1,stim/centre.png,stim/congRight.png,right,0,WN4 9HH,001,2022-05-08_23h20.40.366,ANT,2021.2.3,Win32,60.26637739,,,,,,,,,,,,
1.55,left,1,0.6052,0,7,7,3,1,stim/blank.png,stim/congLeft.png,left,0,WN4 9HH,001,2022-05-08_23h20.40.366,ANT,2021.2.3,Win32,60.26637739,,,,,,,,,,,,
0.45,right,1,0.6303,0,8,8,9,1,stim/both.png,stim/congRight.png,right,0,WN4 9HH,001,2022-05-08_23h20.40.366,ANT,2021.2.3,Win32,60.26637739,,,,,,,,,,,,
1.35,left,1,0.6549,0,9,9,17,1,stim/both.png,stim/incongLeft.png,left,0,WN4 9HH,001,2022-05-08_23h20.40.366,ANT,2021.2.3,Win32,60.26637739,,,,,,,,,,,,
0.75,left,1,0.6867,0,10,10,15,1,stim/blank.png,stim/congRight.png,left,180,WN4 9HH,001,2022-05-08_23h20.40.366,ANT,2021.2.3,Win32,60.26637739,,,,,,,,,,,,
1.15,left,1,0.5356,0,11,11,12,1,stim/lower.png,stim/congRight.png,left,180,WN4 9HH,001,2022-05-08_23h20.40.366,ANT,2021.2.3,Win32,60.26637739,,,,,,,,,,,,
1.25,right,1,0.5214,0,12,12,8,1,stim/upper.png,stim/congRight.png,right,0,WN4 9HH,001,2022-05-08_23h20.40.366,ANT,2021.2.3,Win32,60.26637739,,,,,,,,,,,,
0.65,right,1,0.6305,0,13,13,5,1,stim/both.png,stim/congLeft.png,right,180,WN4 9HH,001,2022-05-08_23h20.40.366,ANT,2021.2.3,Win32,60.26637739,,,,,,,,,,,,
0.45,left,1,0.3226,0,14,14,18,1,stim/centre.png,stim/incongLeft.png,left,0,WN4 9HH,001,2022-05-08_23h20.40.366,ANT,2021.2.3,Win32,60.26637739,,,,,,,,,,,,
0.7,right,1,0.8184,0,15,15,20,1,stim/lower.png,stim/incongLeft.png,right,180,WN4 9HH,001,2022-05-08_23h20.40.366,ANT,2021.2.3,Win32,60.26637739,,,,,,,,,,,,
0.6,right,1,0.6234,0,16,16,21,1,stim/both.png,stim/incongLeft.png,right,180,WN4 9HH,001,2022-05-08_23h20.40.366,ANT,2021.2.3,Win32,60.26637739,,,,,,,,,,,,
1.5,right,1,0.5601,0,17,17,6,1,stim/centre.png,stim/congLeft.png,right,180,WN4 9HH,001,2022-05-08_23h20.40.366,ANT,2021.2.3,Win32,60.26637739,,,,,,,,,,,,
1.4,right,1,0.3435,0,18,18,4,1,stim/lower.png,stim/congLeft.png,right,180,WN4 9HH,001,2022-05-08_23h20.40.366,ANT,2021.2.3,Win32,60.26637739,,,,,,,,,,,,
1.25,left,1,0.6648,0,19,19,19,1,stim/blank.png,stim/incongLeft.png,left,0,WN4 9HH,001,2022-05-08_23h20.40.366,ANT,2021.2.3,Win32,60.26637739,,,,,,,,,,,,
1.35,right,1,0.347,0,20,20,11,1,stim/blank.png,stim/congRight.png,right,0,WN4 9HH,001,2022-05-08_23h20.40.366,ANT,2021.2.3,Win32,60.26637739,,,,,,,,,,,,
0.9,left,0,0.475,0,21,21,23,1,stim/blank.png,stim/incongLeft.png,right,180,WN4 9HH,001,2022-05-08_23h20.40.366,ANT,2021.2.3,Win32,60.26637739,,,,,,,,,,,,
0.7,left,1,0.8894,0,22,22,13,1,stim/both.png,stim/congRight.png,left,180,WN4 9HH,001,2022-05-08_23h20.40.366,ANT,2021.2.3,Win32,60.26637739,,,,,,,,,,,,
1.2,left,1,0.4371,0,23,23,1,1,stim/both.png,stim/congLeft.png,left,0,WN4 9HH,001,2022-05-08_23h20.40.366,ANT,2021.2.3,Win32,60.26637739,,,,,,,,,,,,
1.15,left,1,0.6694,,,,,,stim/blank.png,stim/neutralLeft.png,left,0,WN4 9HH,001,2022-05-08_23h20.40.366,ANT,2021.2.3,Win32,60.26637739,space,4.944,0,0,0,35,1,,,,,
1,right,1,0.4625,,,,,,stim/centre.png,stim/congRight.png,right,0,WN4 9HH,001,2022-05-08_23h20.40.366,ANT,2021.2.3,Win32,60.26637739,,,0,1,1,10,1,,,,,
1.55,left,1,0.6023,,,,,,stim/both.png,stim/incongLeft.png,left,0,WN4 9HH,001,2022-05-08_23h20.40.366,ANT,2021.2.3,Win32,60.26637739,,,0,2,2,17,1,,,,,
0.65,right,1,0.5703,,,,,,stim/lower.png,stim/congLeft.png,right,180,WN4 9HH,001,2022-05-08_23h20.40.366,ANT,2021.2.3,Win32,60.26637739,,,0,3,3,4,1,,,,,
0.6,right,1,0.5212,,,,,,stim/upper.png,stim/congRight.png,right,0,WN4 9HH,001,2022-05-08_23h20.40.366,ANT,2021.2.3,Win32,60.26637739,,,0,4,4,8,1,,,,,
1,right,1,0.641,,,,,,stim/blank.png,stim/neutralLeft.png,right,180,WN4 9HH,001,2022-05-08_23h20.40.366,ANT,2021.2.3,Win32,60.26637739,,,0,5,5,39,1,,,,,
0.4,left,1,0.4846,,,,,,stim/both.png,stim/congRight.png,left,180,WN4 9HH,001,2022-05-08_23h20.40.366,ANT,2021.2.3,Win32,60.26637739,,,0,6,6,13,1,,,,,
0.85,right,1,0.5171,,,,,,stim/blank.png,stim/neutralRight.png,right,0,WN4 9HH,001,2022-05-08_23h20.40.366,ANT,2021.2.3,Win32,60.26637739,,,0,7,7,43,1,,,,,
0.65,left,1,0.3936,,,,,,stim/both.png,stim/neutralLeft.png,left,0,WN4 9HH,001,2022-05-08_23h20.40.366,ANT,2021.2.3,Win32,60.26637739,,,0,8,8,33,1,,,,,
0.4,left,0,0.2853,,,,,,stim/centre.png,stim/incongRight.png,right,0,WN4 9HH,001,2022-05-08_23h20.40.366,ANT,2021.2.3,Win32,60.26637739,,,0,9,9,26,1,,,,,
0.9,right,0,0.2886,,,,,,stim/centre.png,stim/incongLeft.png,left,0,WN4 9HH,001,2022-05-08_23h20.40.366,ANT,2021.2.3,Win32,60.26637739,,,0,10,10,18,1,,,,,
0.6,right,1,0.7773,,,,,,stim/blank.png,stim/incongLeft.png,right,180,WN4 9HH,001,2022-05-08_23h20.40.366,ANT,2021.2.3,Win32,60.26637739,,,0,11,11,23,1,,,,,
1.45,right,1,0.5792,,,,,,stim/blank.png,stim/incongRight.png,right,0,WN4 9HH,001,2022-05-08_23h20.40.366,ANT,2021.2.3,Win32,60.26637739,,,0,12,12,27,1,,,,,
1.2,right,1,0.329,,,,,,stim/both.png,stim/neutralRight.png,right,0,WN4 9HH,001,2022-05-08_23h20.40.366,ANT,2021.2.3,Win32,60.26637739,,,0,13,13,41,1,,,,,
1.3,right,1,0.8005,,,,,,stim/both.png,stim/incongLeft.png,right,180,WN4 9HH,001,2022-05-08_23h20.40.366,ANT,2021.2.3,Win32,60.26637739,,,0,14,14,21,1,,,,,
1.05,left,1,0.8395,,,,,,stim/both.png,stim/congLeft.png,left,0,WN4 9HH,001,2022-05-08_23h20.40.366,ANT,2021.2.3,Win32,60.26637739,,,0,15,15,1,1,,,,,
0.4,right,1,0.5515,,,,,,stim/blank.png,stim/congLeft.png,right,180,WN4 9HH,001,2022-05-08_23h20.40.366,ANT,2021.2.3,Win32,60.26637739,,,0,16,16,7,1,,,,,
0.4,left,1,0.4063,,,,,,stim/centre.png,stim/neutralLeft.png,left,0,WN4 9HH,001,2022-05-08_23h20.40.366,ANT,2021.2.3,Win32,60.26637739,,,0,17,17,34,1,,,,,
0.6,right,1,0.5082,,,,,,stim/both.png,stim/incongRight.png,right,0,WN4 9HH,001,2022-05-08_23h20.40.366,ANT,2021.2.3,Win32,60.26637739,,,0,18,18,25,1,,,,,
1.55,left,1,0.5351,,,,,,stim/centre.png,stim/congLeft.png,left,0,WN4 9HH,001,2022-05-08_23h20.40.366,ANT,2021.2.3,Win32,60.26637739,,,0,19,19,2,1,,,,,
0.9,left,1,0.602,,,,,,stim/centre.png,stim/neutralRight.png,left,180,WN4 9HH,001,2022-05-08_23h20.40.366,ANT,2021.2.3,Win32,60.26637739,,,0,20,20,46,1,,,,,
1.35,right,0,0.3887,,,,,,stim/lower.png,stim/incongRight.png,left,180,WN4 9HH,001,2022-05-08_23h20.40.366,ANT,2021.2.3,Win32,60.26637739,,,0,21,21,28,1,,,,,
1.55,right,0,0.4002,,,,,,stim/upper.png,stim/incongLeft.png,left,0,WN4 9HH,001,2022-05-08_23h20.40.366,ANT,2021.2.3,Win32,60.26637739,,,0,22,22,16,1,,,,,
1.25,right,1,0.0008,,,,,,stim/blank.png,stim/congRight.png,right,0,WN4 9HH,001,2022-05-08_23h20.40.366,ANT,2021.2.3,Win32,60.26637739,,,0,23,23,11,1,,,,,
0.6,right,0,0.4848,,,,,,stim/upper.png,stim/neutralLeft.png,left,0,WN4 9HH,001,2022-05-08_23h20.40.366,ANT,2021.2.3,Win32,60.26637739,,,0,24,24,32,1,,,,,
0.4,left,1,0.5034,,,,,,stim/upper.png,stim/congLeft.png,left,0,WN4 9HH,001,2022-05-08_23h20.40.366,ANT,2021.2.3,Win32,60.26637739,,,0,25,25,0,1,,,,,
0.85,left,1,0.7192,,,,,,stim/centre.png,stim/incongRight.png,left,180,WN4 9HH,001,2022-05-08_23h20.40.366,ANT,2021.2.3,Win32,60.26637739,,,0,26,26,30,1,,,,,
0.5,right,1,0.5597,,,,,,stim/centre.png,stim/neutralLeft.png,right,180,WN4 9HH,001,2022-05-08_23h20.40.366,ANT,2021.2.3,Win32,60.26637739,,,0,27,27,38,1,,,,,
0.45,left,1,0.4922,,,,,,stim/both.png,stim/neutralRight.png,left,180,WN4 9HH,001,2022-05-08_23h20.40.366,ANT,2021.2.3,Win32,60.26637739,,,0,28,28,45,1,,,,,
1.2,right,1,0.521,,,,,,stim/both.png,stim/neutralLeft.png,right,180,WN4 9HH,001,2022-05-08_23h20.40.366,ANT,2021.2.3,Win32,60.26637739,,,0,29,29,37,1,,,,,
0.45,left,1,0.6024,,,,,,stim/blank.png,stim/incongRight.png,left,180,WN4 9HH,001,2022-05-08_23h20.40.366,ANT,2021.2.3,Win32,60.26637739,,,0,30,30,31,1,,,,,
0.45,left,1,0.4518,,,,,,stim/blank.png,stim/neutralRight.png,left,180,WN4 9HH,001,2022-05-08_23h20.40.366,ANT,2021.2.3,Win32,60.26637739,,,0,31,31,47,1,,,,,
1.05,left,1,0.317,,,,,,stim/lower.png,stim/neutralRight.png,left,180,WN4 9HH,001,2022-05-08_23h20.40.366,ANT,2021.2.3,Win32,60.26637739,,,0,32,32,44,1,,,,,
1.35,left,1,0.3525,,,,,,stim/lower.png,stim/congRight.png,left,180,WN4 9HH,001,2022-05-08_23h20.40.366,ANT,2021.2.3,Win32,60.26637739,,,0,33,33,12,1,,,,,
0.9,left,1,0.5028,,,,,,stim/both.png,stim/incongRight.png,left,180,WN4 9HH,001,2022-05-08_23h20.40.366,ANT,2021.2.3,Win32,60.26637739,,,0,34,34,29,1,,,,,
0.7,left,1,0.9344,,,,,,stim/blank.png,stim/incongLeft.png,left,0,WN4 9HH,001,2022-05-08_23h20.40.366,ANT,2021.2.3,Win32,60.26637739,,,0,35,35,19,1,,,,,
0.9,right,1,0.277,,,,,,stim/lower.png,stim/incongLeft.png,right,180,WN4 9HH,001,2022-05-08_23h20.40.366,ANT,2021.2.3,Win32,60.26637739,,,0,36,36,20,1,,,,,
1.25,right,1,0.751,,,,,,stim/centre.png,stim/neutralRight.png,right,0,WN4 9HH,001,2022-05-08_23h20.40.366,ANT,2021.2.3,Win32,60.26637739,,,0,37,37,42,1,,,,,
1,right,1,0.5222,,,,,,stim/upper.png,stim/neutralRight.png,right,0,WN4 9HH,001,2022-05-08_23h20.40.366,ANT,2021.2.3,Win32,60.26637739,,,0,38,38,40,1,,,,,
1.1,left,1,0.6509,,,,,,stim/centre.png,stim/congRight.png,left,180,WN4 9HH,001,2022-05-08_23h20.40.366,ANT,2021.2.3,Win32,60.26637739,,,0,39,39,14,1,,,,,
0.95,right,1,0.9174,,,,,,stim/centre.png,stim/incongLeft.png,right,180,WN4 9HH,001,2022-05-08_23h20.40.366,ANT,2021.2.3,Win32,60.26637739,,,0,40,40,22,1,,,,,
1.05,left,1,0.6012,,,,,,stim/blank.png,stim/congRight.png,left,180,WN4 9HH,001,2022-05-08_23h20.40.366,ANT,2021.2.3,Win32,60.26637739,,,0,41,41,15,1,,,,,
1.4,left,1,0.5512,,,,,,stim/blank.png,stim/congLeft.png,left,0,WN4 9HH,001,2022-05-08_23h20.40.366,ANT,2021.2.3,Win32,60.26637739,,,0,42,42,3,1,,,,,
1.4,right,1,0.6019,,,,,,stim/centre.png,stim/congLeft.png,right,180,WN4 9HH,001,2022-05-08_23h20.40.366,ANT,2021.2.3,Win32,60.26637739,,,0,43,43,6,1,,,,,
0.7,right,1,0.6242,,,,,,stim/both.png,stim/congRight.png,right,0,WN4 9HH,001,2022-05-08_23h20.40.366,ANT,2021.2.3,Win32,60.26637739,,,0,44,44,9,1,,,,,
0.8,right,1,0.5928,,,,,,stim/lower.png,stim/neutralLeft.png,right,180,WN4 9HH,001,2022-05-08_23h20.40.366,ANT,2021.2.3,Win32,60.26637739,,,0,45,45,36,1,,,,,
0.55,right,1,0.7538,,,,,,stim/upper.png,stim/incongRight.png,right,0,WN4 9HH,001,2022-05-08_23h20.40.366,ANT,2021.2.3,Win32,60.26637739,,,0,46,46,24,1,,,,,
0.85,right,1,0.6958,,,,,,stim/both.png,stim/congLeft.png,right,180,WN4 9HH,001,2022-05-08_23h20.40.366,ANT,2021.2.3,Win32,60.26637739,,,0,47,47,5,1,,,,,
0.9,left,1,0.6359,,,,,,stim/both.png,stim/neutralLeft.png,left,0,WN4 9HH,001,2022-05-08_23h20.40.366,ANT,2021.2.3,Win32,60.26637739,,,1,0,48,33,1,,,,,
1.55,left,1,0.5085,,,,,,stim/blank.png,stim/neutralRight.png,left,180,WN4 9HH,001,2022-05-08_23h20.40.366,ANT,2021.2.3,Win32,60.26637739,,,1,1,49,47,1,,,,,
1.35,right,1,1.0743,,,,,,stim/upper.png,stim/incongRight.png,right,0,WN4 9HH,001,2022-05-08_23h20.40.366,ANT,2021.2.3,Win32,60.26637739,,,1,2,50,24,1,,,,,
0.5,left,1,0.584,,,,,,stim/lower.png,stim/incongRight.png,left,180,WN4 9HH,001,2022-05-08_23h20.40.366,ANT,2021.2.3,Win32,60.26637739,,,1,3,51,28,1,,,,,
1.3,right,1,0.4942,,,,,,stim/blank.png,stim/neutralLeft.png,right,180,WN4 9HH,001,2022-05-08_23h20.40.366,ANT,2021.2.3,Win32,60.26637739,,,1,4,52,39,1,,,,,
0.9,left,1,0.5841,,,,,,stim/blank.png,stim/congLeft.png,left,0,WN4 9HH,001,2022-05-08_23h20.40.366,ANT,2021.2.3,Win32,60.26637739,,,1,5,53,3,1,,,,,
0.5,right,1,0.6194,,,,,,stim/both.png,stim/incongRight.png,right,0,WN4 9HH,001,2022-05-08_23h20.40.366,ANT,2021.2.3,Win32,60.26637739,,,1,6,54,25,1,,,,,
0.6,left,1,0.3844,,,,,,stim/upper.png,stim/neutralLeft.png,left,0,WN4 9HH,001,2022-05-08_23h20.40.366,ANT,2021.2.3,Win32,60.26637739,,,1,7,55,32,1,,,,,
0.75,right,1,0.4781,,,,,,stim/blank.png,stim/congRight.png,right,0,WN4 9HH,001,2022-05-08_23h20.40.366,ANT,2021.2.3,Win32,60.26637739,,,1,8,56,11,1,,,,,
1.4,left,1,0.5841,,,,,,stim/both.png,stim/congRight.png,left,180,WN4 9HH,001,2022-05-08_23h20.40.366,ANT,2021.2.3,Win32,60.26637739,,,1,9,57,13,1,,,,,
1.35,left,1,0.7121,,,,,,stim/centre.png,stim/incongRight.png,left,180,WN4 9HH,001,2022-05-08_23h20.40.366,ANT,2021.2.3,Win32,60.26637739,,,1,10,58,30,1,,,,,
1.3,right,1,0.3903,,,,,,stim/upper.png,stim/congRight.png,right,0,WN4 9HH,001,2022-05-08_23h20.40.366,ANT,2021.2.3,Win32,60.26637739,,,1,11,59,8,1,,,,,
1.15,left,1,0.6178,,,,,,stim/centre.png,stim/congRight.png,left,180,WN4 9HH,001,2022-05-08_23h20.40.366,ANT,2021.2.3,Win32,60.26637739,,,1,12,60,14,1,,,,,
1.45,left,0,0.4006,,,,,,stim/both.png,stim/congLeft.png,right,180,WN4 9HH,001,2022-05-08_23h20.40.366,ANT,2021.2.3,Win32,60.26637739,,,1,13,61,5,1,,,,,
0.8,right,0,0.0048,,,,,,stim/both.png,stim/incongRight.png,left,180,WN4 9HH,001,2022-05-08_23h20.40.366,ANT,2021.2.3,Win32,60.26637739,,,1,14,62,29,1,,,,,
0.6,left,1,0.6678,,,,,,stim/centre.png,stim/congLeft.png,left,0,WN4 9HH,001,2022-05-08_23h20.40.366,ANT,2021.2.3,Win32,60.26637739,,,1,15,63,2,1,,,,,
0.6,left,1,0.4889,,,,,,stim/lower.png,stim/neutralRight.png,left,180,WN4 9HH,001,2022-05-08_23h20.40.366,ANT,2021.2.3,Win32,60.26637739,,,1,16,64,44,1,,,,,
0.45,right,1,0.4677,,,,,,stim/blank.png,stim/congLeft.png,right,180,WN4 9HH,001,2022-05-08_23h20.40.366,ANT,2021.2.3,Win32,60.26637739,,,1,17,65,7,1,,,,,
0.65,right,1,0.4844,,,,,,stim/centre.png,stim/neutralRight.png,right,0,WN4 9HH,001,2022-05-08_23h20.40.366,ANT,2021.2.3,Win32,60.26637739,,,1,18,66,42,1,,,,,
0.9,right,0,0.2896,,,,,,stim/centre.png,stim/neutralLeft.png,left,0,WN4 9HH,001,2022-05-08_23h20.40.366,ANT,2021.2.3,Win32,60.26637739,,,1,19,67,34,1,,,,,
0.65,right,1,0.1062,,,,,,stim/blank.png,stim/incongRight.png,right,0,WN4 9HH,001,2022-05-08_23h20.40.366,ANT,2021.2.3,Win32,60.26637739,,,1,20,68,27,1,,,,,
0.95,left,1,0.0527,,,,,,stim/both.png,stim/neutralRight.png,left,180,WN4 9HH,001,2022-05-08_23h20.40.366,ANT,2021.2.3,Win32,60.26637739,,,1,21,69,45,1,,,,,
1.05,left,1,0.9198,,,,,,stim/upper.png,stim/congLeft.png,left,0,WN4 9HH,001,2022-05-08_23h20.40.366,ANT,2021.2.3,Win32,60.26637739,,,1,22,70,0,1,,,,,
1.55,right,1,0.985,,,,,,stim/both.png,stim/neutralLeft.png,right,180,WN4 9HH,001,2022-05-08_23h20.40.366,ANT,2021.2.3,Win32,60.26637739,,,1,23,71,37,1,,,,,
1.5,right,1,0.6618,,,,,,stim/blank.png,stim/incongLeft.png,right,180,WN4 9HH,001,2022-05-08_23h20.40.366,ANT,2021.2.3,Win32,60.26637739,,,1,24,72,23,1,,,,,
1.25,right,1,0.5843,,,,,,stim/blank.png,stim/neutralRight.png,right,0,WN4 9HH,001,2022-05-08_23h20.40.366,ANT,2021.2.3,Win32,60.26637739,,,1,25,73,43,1,,,,,
0.85,right,1,0.8069,,,,,,stim/centre.png,stim/neutralLeft.png,right,180,WN4 9HH,001,2022-05-08_23h20.40.366,ANT,2021.2.3,Win32,60.26637739,,,1,26,74,38,1,,,,,
0.95,right,0,0.3615,,,,,,stim/upper.png,stim/incongLeft.png,left,0,WN4 9HH,001,2022-05-08_23h20.40.366,ANT,2021.2.3,Win32,60.26637739,,,1,27,75,16,1,,,,,
0.75,left,1,0.6849,,,,,,stim/blank.png,stim/incongLeft.png,left,0,WN4 9HH,001,2022-05-08_23h20.40.366,ANT,2021.2.3,Win32,60.26637739,,,1,28,76,19,1,,,,,
1.05,right,1,0.4939,,,,,,stim/both.png,stim/congRight.png,right,0,WN4 9HH,001,2022-05-08_23h20.40.366,ANT,2021.2.3,Win32,60.26637739,,,1,29,77,9,1,,,,,
0.8,left,1,0.7176,,,,,,stim/centre.png,stim/incongLeft.png,left,0,WN4 9HH,001,2022-05-08_23h20.40.366,ANT,2021.2.3,Win32,60.26637739,,,1,30,78,18,1,,,,,
0.8,left,1,0.5784,,,,,,stim/blank.png,stim/congRight.png,left,180,WN4 9HH,001,2022-05-08_23h20.40.366,ANT,2021.2.3,Win32,60.26637739,,,1,31,79,15,1,,,,,
1.55,right,1,0.7182,,,,,,stim/lower.png,stim/incongLeft.png,right,180,WN4 9HH,001,2022-05-08_23h20.40.366,ANT,2021.2.3,Win32,60.26637739,,,1,32,80,20,1,,,,,
1.1,left,1,0.9505,,,,,,stim/blank.png,stim/incongRight.png,left,180,WN4 9HH,001,2022-05-08_23h20.40.366,ANT,2021.2.3,Win32,60.26637739,,,1,33,81,31,1,,,,,
1.25,left,1,0.5904,,,,,,stim/blank.png,stim/neutralLeft.png,left,0,WN4 9HH,001,2022-05-08_23h20.40.366,ANT,2021.2.3,Win32,60.26637739,,,1,34,82,35,1,,,,,
0.85,right,1,0.8075,,,,,,stim/both.png,stim/neutralRight.png,right,0,WN4 9HH,001,2022-05-08_23h20.40.366,ANT,2021.2.3,Win32,60.26637739,,,1,35,83,41,1,,,,,
0.8,left,1,0.7537,,,,,,stim/both.png,stim/incongLeft.png,left,0,WN4 9HH,001,2022-05-08_23h20.40.366,ANT,2021.2.3,Win32,60.26637739,,,1,36,84,17,1,,,,,
1.35,right,1,0.5417,,,,,,stim/lower.png,stim/congLeft.png,right,180,WN4 9HH,001,2022-05-08_23h20.40.366,ANT,2021.2.3,Win32,60.26637739,,,1,37,85,4,1,,,,,
1.2,right,1,0.6578,,,,,,stim/centre.png,stim/incongLeft.png,right,180,WN4 9HH,001,2022-05-08_23h20.40.366,ANT,2021.2.3,Win32,60.26637739,,,1,38,86,22,1,,,,,
0.95,right,1,0.5352,,,,,,stim/centre.png,stim/congLeft.png,right,180,WN4 9HH,001,2022-05-08_23h20.40.366,ANT,2021.2.3,Win32,60.26637739,,,1,39,87,6,1,,,,,
1.25,right,1,0.3703,,,,,,stim/lower.png,stim/neutralLeft.png,right,180,WN4 9HH,001,2022-05-08_23h20.40.366,ANT,2021.2.3,Win32,60.26637739,,,1,40,88,36,1,,,,,
1.55,left,1,0.4269,,,,,,stim/both.png,stim/congLeft.png,left,0,WN4 9HH,001,2022-05-08_23h20.40.366,ANT,2021.2.3,Win32,60.26637739,,,1,41,89,1,1,,,,,
1.25,right,1,0.6182,,,,,,stim/both.png,stim/incongLeft.png,right,180,WN4 9HH,001,2022-05-08_23h20.40.366,ANT,2021.2.3,Win32,60.26637739,,,1,42,90,21,1,,,,,
0.45,right,1,0.6673,,,,,,stim/centre.png,stim/incongRight.png,right,0,WN4 9HH,001,2022-05-08_23h20.40.366,ANT,2021.2.3,Win32,60.26637739,,,1,43,91,26,1,,,,,
1.5,left,1,0.5879,,,,,,stim/centre.png,stim/neutralRight.png,left,180,WN4 9HH,001,2022-05-08_23h20.40.366,ANT,2021.2.3,Win32,60.26637739,,,1,44,92,46,1,,,,,
0.4,left,1,0.751,,,,,,stim/lower.png,stim/congRight.png,left,180,WN4 9HH,001,2022-05-08_23h20.40.366,ANT,2021.2.3,Win32,60.26637739,,,1,45,93,12,1,,,,,
0.95,right,1,1.1173,,,,,,stim/centre.png,stim/congRight.png,right,0,WN4 9HH,001,2022-05-08_23h20.40.366,ANT,2021.2.3,Win32,60.26637739,,,1,46,94,10,1,,,,,
1.45,,0,,,,,,,stim/upper.png,stim/neutralRight.png,right,0,WN4 9HH,001,2022-05-08_23h20.40.366,ANT,2021.2.3,Win32,60.26637739,,,1,47,95,40,1,,,,,
,,,,,,,,,,,,,WN4 9HH,001,2022-05-08_23h20.40.366,ANT,2021.2.3,Win32,60.26637739,,,,,,,,0,0,0,0,1
0.85,left,1,0.5126,,,,,,stim/centre.png,stim/neutralLeft.png,left,0,WN4 9HH,001,2022-05-08_23h20.40.366,ANT,2021.2.3,Win32,60.26637739,,,0,0,0,34,1,,,,,
0.4,left,1,0.519,,,,,,stim/centre.png,stim/congLeft.png,left,0,WN4 9HH,001,2022-05-08_23h20.40.366,ANT,2021.2.3,Win32,60.26637739,,,0,1,1,2,1,,,,,
1.2,right,1,0.5252,,,,,,stim/centre.png,stim/neutralRight.png,right,0,WN4 9HH,001,2022-05-08_23h20.40.366,ANT,2021.2.3,Win32,60.26637739,,,0,2,2,42,1,,,,,
1.1,left,1,0.8421,,,,,,stim/both.png,stim/congLeft.png,left,0,WN4 9HH,001,2022-05-08_23h20.40.366,ANT,2021.2.3,Win32,60.26637739,,,0,3,3,1,1,,,,,
0.8,left,1,1.1348,,,,,,stim/both.png,stim/incongRight.png,left,180,WN4 9HH,001,2022-05-08_23h20.40.366,ANT,2021.2.3,Win32,60.26637739,,,0,4,4,29,1,,,,,
0.85,left,1,0.6922,,,,,,stim/centre.png,stim/incongRight.png,left,180,WN4 9HH,001,2022-05-08_23h20.40.366,ANT,2021.2.3,Win32,60.26637739,,,0,5,5,30,1,,,,,
1.5,right,1,0.7705,,,,,,stim/upper.png,stim/neutralRight.png,right,0,WN4 9HH,001,2022-05-08_23h20.40.366,ANT,2021.2.3,Win32,60.26637739,,,0,6,6,40,1,,,,,
0.95,right,0,0.4352,,,,,,stim/upper.png,stim/neutralLeft.png,left,0,WN4 9HH,001,2022-05-08_23h20.40.366,ANT,2021.2.3,Win32,60.26637739,,,0,7,7,32,1,,,,,
1.45,right,1,0.5675,,,,,,stim/both.png,stim/congRight.png,right,0,WN4 9HH,001,2022-05-08_23h20.40.366,ANT,2021.2.3,Win32,60.26637739,,,0,8,8,9,1,,,,,
0.65,left,1,1.4229,,,,,,stim/both.png,stim/incongLeft.png,left,0,WN4 9HH,001,2022-05-08_23h20.40.366,ANT,2021.2.3,Win32,60.26637739,,,0,9,9,17,1,,,,,
1.25,right,1,0.6008,,,,,,stim/blank.png,stim/incongLeft.png,right,180,WN4 9HH,001,2022-05-08_23h20.40.366,ANT,2021.2.3,Win32,60.26637739,,,0,10,10,23,1,,,,,
1.05,right,1,0.6339,,,,,,stim/centre.png,stim/congLeft.png,right,180,WN4 9HH,001,2022-05-08_23h20.40.366,ANT,2021.2.3,Win32,60.26637739,,,0,11,11,6,1,,,,,
1.1,left,1,0.5865,,,,,,stim/blank.png,stim/congRight.png,left,180,WN4 9HH,001,2022-05-08_23h20.40.366,ANT,2021.2.3,Win32,60.26637739,,,0,12,12,15,1,,,,,
0.45,right,1,0.5339,,,,,,stim/blank.png,stim/incongRight.png,right,0,WN4 9HH,001,2022-05-08_23h20.40.366,ANT,2021.2.3,Win32,60.26637739,,,0,13,13,27,1,,,,,
0.8,right,1,0.5245,,,,,,stim/blank.png,stim/congLeft.png,right,180,WN4 9HH,001,2022-05-08_23h20.40.366,ANT,2021.2.3,Win32,60.26637739,,,0,14,14,7,1,,,,,
0.4,right,1,0.3187,,,,,,stim/both.png,stim/congLeft.png,right,180,WN4 9HH,001,2022-05-08_23h20.40.366,ANT,2021.2.3,Win32,60.26637739,,,0,15,15,5,1,,,,,
1.4,right,1,0.1073,,,,,,stim/centre.png,stim/neutralLeft.png,right,180,WN4 9HH,001,2022-05-08_23h20.40.366,ANT,2021.2.3,Win32,60.26637739,,,0,16,16,38,1,,,,,
0.5,right,1,0.1218,,,,,,stim/centre.png,stim/congRight.png,right,0,WN4 9HH,001,2022-05-08_23h20.40.366,ANT,2021.2.3,Win32,60.26637739,,,0,17,17,10,1,,,,,
1.35,right,1,0.6515,,,,,,stim/upper.png,stim/incongRight.png,right,0,WN4 9HH,001,2022-05-08_23h20.40.366,ANT,2021.2.3,Win32,60.26637739,,,0,18,18,24,1,,,,,
0.95,,0,,,,,,,stim/both.png,stim/incongRight.png,right,0,WN4 9HH,001,2022-05-08_23h20.40.366,ANT,2021.2.3,Win32,60.26637739,,,0,19,19,25,1,,,,,
1.4,,0,,,,,,,stim/upper.png,stim/congLeft.png,left,0,WN4 9HH,001,2022-05-08_23h20.40.366,ANT,2021.2.3,Win32,60.26637739,,,0,20,20,0,1,,,,,
0.65,,0,,,,,,,stim/lower.png,stim/neutralRight.png,left,180,WN4 9HH,001,2022-05-08_23h20.40.366,ANT,2021.2.3,Win32,60.26637739,,,0,21,21,44,1,,,,,
0.8,right,1,0.4869,,,,,,stim/blank.png,stim/congRight.png,right,0,WN4 9HH,001,2022-05-08_23h20.40.366,ANT,2021.2.3,Win32,60.26637739,,,0,22,22,11,1,,,,,
0.75,left,1,0.8031,,,,,,stim/both.png,stim/neutralLeft.png,left,0,WN4 9HH,001,2022-05-08_23h20.40.366,ANT,2021.2.3,Win32,60.26637739,,,0,23,23,33,1,,,,,
1.2,left,1,0.6006,,,,,,stim/blank.png,stim/congLeft.png,left,0,WN4 9HH,001,2022-05-08_23h20.40.366,ANT,2021.2.3,Win32,60.26637739,,,0,24,24,3,1,,,,,
1.5,left,0,0.5012,,,,,,stim/centre.png,stim/incongLeft.png,right,180,WN4 9HH,001,2022-05-08_23h20.40.366,ANT,2021.2.3,Win32,60.26637739,,,0,25,25,22,1,,,,,
0.95,right,0,0.0124,,,,,,stim/blank.png,stim/neutralRight.png,left,180,WN4 9HH,001,2022-05-08_23h20.40.366,ANT,2021.2.3,Win32,60.26637739,,,0,26,26,47,1,,,,,
1.2,,0,,,,,,,stim/upper.png,stim/incongLeft.png,left,0,WN4 9HH,001,2022-05-08_23h20.40.366,ANT,2021.2.3,Win32,60.26637739,,,0,27,27,16,1,,,,,
0.9,,0,,,,,,,stim/upper.png,stim/congRight.png,right,0,WN4 9HH,001,2022-05-08_23h20.40.366,ANT,2021.2.3,Win32,60.26637739,,,0,28,28,8,1,,,,,
1.15,,0,,,,,,,stim/lower.png,stim/congRight.png,left,180,WN4 9HH,001,2022-05-08_23h20.40.366,ANT,2021.2.3,Win32,60.26637739,,,0,29,29,12,1,,,,,
0.55,,0,,,,,,,stim/blank.png,stim/incongRight.png,left,180,WN4 9HH,001,2022-05-08_23h20.40.366,ANT,2021.2.3,Win32,60.26637739,,,0,30,30,31,1,,,,,
1.25,,0,,,,,,,stim/both.png,stim/incongLeft.png,right,180,WN4 9HH,001,2022-05-08_23h20.40.366,ANT,2021.2.3,Win32,60.26637739,,,0,31,31,21,1,,,,,
0.9,,0,,,,,,,stim/lower.png,stim/congLeft.png,right,180,WN4 9HH,001,2022-05-08_23h20.40.366,ANT,2021.2.3,Win32,60.26637739,,,0,32,32,4,1,,,,,
0.6,,0,,,,,,,stim/blank.png,stim/neutralLeft.png,left,0,WN4 9HH,001,2022-05-08_23h20.40.366,ANT,2021.2.3,Win32,60.26637739,,,0,33,33,35,1,,,,,
1.3,,0,,,,,,,stim/centre.png,stim/incongLeft.png,left,0,WN4 9HH,001,2022-05-08_23h20.40.366,ANT,2021.2.3,Win32,60.26637739,,,0,34,34,18,1,,,,,
0.9,,0,,,,,,,stim/both.png,stim/neutralLeft.png,right,180,WN4 9HH,001,2022-05-08_23h20.40.366,ANT,2021.2.3,Win32,60.26637739,,,0,35,35,37,1,,,,,
0.95,,0,,,,,,,stim/centre.png,stim/congRight.png,left,180,WN4 9HH,001,2022-05-08_23h20.40.366,ANT,2021.2.3,Win32,60.26637739,,,0,36,36,14,1,,,,,
1.05,left,1,0.1022,,,,,,stim/both.png,stim/congRight.png,left,180,WN4 9HH,001,2022-05-08_23h20.40.366,ANT,2021.2.3,Win32,60.26637739,,,0,37,37,13,1,,,,,
1.25,left,1,0.2062,,,,,,stim/both.png,stim/neutralRight.png,left,180,WN4 9HH,001,2022-05-08_23h20.40.366,ANT,2021.2.3,Win32,60.26637739,,,0,38,38,45,1,,,,,
0.6,right,0,0.6259,,,,,,stim/blank.png,stim/incongLeft.png,left,0,WN4 9HH,001,2022-05-08_23h20.40.366,ANT,2021.2.3,Win32,60.26637739,,,0,39,39,19,1,,,,,
0.8,right,0,0.3342,,,,,,stim/lower.png,stim/incongRight.png,left,180,WN4 9HH,001,2022-05-08_23h20.40.366,ANT,2021.2.3,Win32,60.26637739,,,0,40,40,28,1,,,,,
1.25,left,1,0.4509,,,,,,stim/centre.png,stim/neutralRight.png,left,180,WN4 9HH,001,2022-05-08_23h20.40.366,ANT,2021.2.3,Win32,60.26637739,,,0,41,41,46,1,,,,,
0.95,right,1,0.5345,,,,,,stim/blank.png,stim/neutralRight.png,right,0,WN4 9HH,001,2022-05-08_23h20.40.366,ANT,2021.2.3,Win32,60.26637739,,,0,42,42,43,1,,,,,
0.55,right,1,0.384,,,,,,stim/both.png,stim/neutralRight.png,right,0,WN4 9HH,001,2022-05-08_23h20.40.366,ANT,2021.2.3,Win32,60.26637739,,,0,43,43,41,1,,,,,
1.5,left,0,0.0008,,,,,,stim/centre.png,stim/incongRight.png,right,0,WN4 9HH,001,2022-05-08_23h20.40.366,ANT,2021.2.3,Win32,60.26637739,,,0,44,44,26,1,,,,,
0.45,right,1,0.4105,,,,,,stim/lower.png,stim/neutralLeft.png,right,180,WN4 9HH,001,2022-05-08_23h20.40.366,ANT,2021.2.3,Win32,60.26637739,,,0,45,45,36,1,,,,,
0.75,right,1,0.3712,,,,,,stim/lower.png,stim/incongLeft.png,right,180,WN4 9HH,001,2022-05-08_23h20.40.366,ANT,2021.2.3,Win32,60.26637739,,,0,46,46,20,1,,,,,
0.45,right,1,0.4008,,,,,,stim/blank.png,stim/neutralLeft.png,right,180,WN4 9HH,001,2022-05-08_23h20.40.366,ANT,2021.2.3,Win32,60.26637739,,,0,47,47,39,1,,,,,
1.3,right,1,0.4353,,,,,,stim/centre.png,stim/congRight.png,right,0,WN4 9HH,001,2022-05-08_23h20.40.366,ANT,2021.2.3,Win32,60.26637739,,,1,0,48,10,1,,,,,
1.25,right,1,0.4075,,,,,,stim/blank.png,stim/neutralLeft.png,right,180,WN4 9HH,001,2022-05-08_23h20.40.366,ANT,2021.2.3,Win32,60.26637739,,,1,1,49,39,1,,,,,
0.5,right,0,0.2509,,,,,,stim/centre.png,stim/incongRight.png,left,180,WN4 9HH,001,2022-05-08_23h20.40.366,ANT,2021.2.3,Win32,60.26637739,,,1,2,50,30,1,,,,,
0.75,left,1,0.4174,,,,,,stim/blank.png,stim/neutralRight.png,left,180,WN4 9HH,001,2022-05-08_23h20.40.366,ANT,2021.2.3,Win32,60.26637739,,,1,3,51,47,1,,,,,
0.8,right,1,0.7215,,,,,,stim/blank.png,stim/incongLeft.png,right,180,WN4 9HH,001,2022-05-08_23h20.40.366,ANT,2021.2.3,Win32,60.26637739,,,1,4,52,23,1,,,,,
0.5,right,0,0.5905,,,,,,stim/upper.png,stim/incongLeft.png,left,0,WN4 9HH,001,2022-05-08_23h20.40.366,ANT,2021.2.3,Win32,60.26637739,,,1,5,53,16,1,,,,,
1.5,right,0,0.0683,,,,,,stim/both.png,stim/congRight.png,left,180,WN4 9HH,001,2022-05-08_23h20.40.366,ANT,2021.2.3,Win32,60.26637739,,,1,6,54,13,1,,,,,
0.85,right,0,0.0843,,,,,,stim/both.png,stim/incongLeft.png,left,0,WN4 9HH,001,2022-05-08_23h20.40.366,ANT,2021.2.3,Win32,60.26637739,,,1,7,55,17,1,,,,,
1.2,right,1,0.0616,,,,,,stim/lower.png,stim/neutralLeft.png,right,180,WN4 9HH,001,2022-05-08_23h20.40.366,ANT,2021.2.3,Win32,60.26637739,,,1,8,56,36,1,,,,,
0.95,right,0,0.0342,,,,,,stim/blank.png,stim/neutralLeft.png,left,0,WN4 9HH,001,2022-05-08_23h20.40.366,ANT,2021.2.3,Win32,60.26637739,,,1,9,57,35,1,,,,,
0.4,left,0,1.0017,,,,,,stim/both.png,stim/congLeft.png,right,180,WN4 9HH,001,2022-05-08_23h20.40.366,ANT,2021.2.3,Win32,60.26637739,,,1,10,58,5,1,,,,,
1.4,,0,,,,,,,stim/upper.png,stim/congLeft.png,left,0,WN4 9HH,001,2022-05-08_23h20.40.366,ANT,2021.2.3,Win32,60.26637739,,,1,11,59,0,1,,,,,
1.35,right,1,0.6372,,,,,,stim/both.png,stim/incongRight.png,right,0,WN4 9HH,001,2022-05-08_23h20.40.366,ANT,2021.2.3,Win32,60.26637739,,,1,12,60,25,1,,,,,
0.4,right,1,0.2044,,,,,,stim/both.png,stim/neutralLeft.png,right,180,WN4 9HH,001,2022-05-08_23h20.40.366,ANT,2021.2.3,Win32,60.26637739,,,1,13,61,37,1,,,,,
1.3,right,0,0.0043,,,,,,stim/both.png,stim/congLeft.png,left,0,WN4 9HH,001,2022-05-08_23h20.40.366,ANT,2021.2.3,Win32,60.26637739,,,1,14,62,1,1,,,,,
1,,0,,,,,,,stim/blank.png,stim/congRight.png,right,0,WN4 9HH,001,2022-05-08_23h20.40.366,ANT,2021.2.3,Win32,60.26637739,,,1,15,63,11,1,,,,,
1.25,right,1,0.5507,,,,,,stim/centre.png,stim/neutralRight.png,right,0,WN4 9HH,001,2022-05-08_23h20.40.366,ANT,2021.2.3,Win32,60.26637739,,,1,16,64,42,1,,,,,
0.45,right,1,1.0174,,,,,,stim/both.png,stim/neutralRight.png,right,0,WN4 9HH,001,2022-05-08_23h20.40.366,ANT,2021.2.3,Win32,60.26637739,,,1,17,65,41,1,,,,,
1,right,1,0.5004,,,,,,stim/blank.png,stim/congLeft.png,right,180,WN4 9HH,001,2022-05-08_23h20.40.366,ANT,2021.2.3,Win32,60.26637739,,,1,18,66,7,1,,,,,
1.25,right,1,0.3678,,,,,,stim/blank.png,stim/neutralRight.png,right,0,WN4 9HH,001,2022-05-08_23h20.40.366,ANT,2021.2.3,Win32,60.26637739,,,1,19,67,43,1,,,,,
1.05,left,1,0.3419,,,,,,stim/centre.png,stim/congLeft.png,left,0,WN4 9HH,001,2022-05-08_23h20.40.366,ANT,2021.2.3,Win32,60.26637739,,,1,20,68,2,1,,,,,
1.55,right,1,0.3128,,,,,,stim/upper.png,stim/incongRight.png,right,0,WN4 9HH,001,2022-05-08_23h20.40.366,ANT,2021.2.3,Win32,60.26637739,,,1,21,69,24,1,,,,,
1.05,left,1,0.4711,,,,,,stim/lower.png,stim/congRight.png,left,180,WN4 9HH,001,2022-05-08_23h20.40.366,ANT,2021.2.3,Win32,60.26637739,,,1,22,70,12,1,,,,,
1.55,right,0,0.162,,,,,,stim/centre.png,stim/incongLeft.png,left,0,WN4 9HH,001,2022-05-08_23h20.40.366,ANT,2021.2.3,Win32,60.26637739,,,1,23,71,18,1,,,,,
0.8,right,0,0.1287,,,,,,stim/centre.png,stim/congRight.png,left,180,WN4 9HH,001,2022-05-08_23h20.40.366,ANT,2021.2.3,Win32,60.26637739,,,1,24,72,14,1,,,,,
0.45,right,1,0.2574,,,,,,stim/centre.png,stim/neutralLeft.png,right,180,WN4 9HH,001,2022-05-08_23h20.40.366,ANT,2021.2.3,Win32,60.26637739,,,1,25,73,38,1,,,,,
0.7,right,0,0.0008,,,,,,stim/blank.png,stim/congRight.png,left,180,WN4 9HH,001,2022-05-08_23h20.40.366,ANT,2021.2.3,Win32,60.26637739,,,1,26,74,15,1,,,,,
1.45,left,0,0.3925,,,,,,stim/both.png,stim/incongLeft.png,right,180,WN4 9HH,001,2022-05-08_23h20.40.366,ANT,2021.2.3,Win32,60.26637739,,,1,27,75,21,1,,,,,
0.45,left,1,0.2584,,,,,,stim/both.png,stim/incongRight.png,left,180,WN4 9HH,001,2022-05-08_23h20.40.366,ANT,2021.2.3,Win32,60.26637739,,,1,28,76,29,1,,,,,
0.75,left,1,0.7276,,,,,,stim/blank.png,stim/incongRight.png,left,180,WN4 9HH,001,2022-05-08_23h20.40.366,ANT,2021.2.3,Win32,60.26637739,,,1,29,77,31,1,,,,,
0.8,left,0,0.4619,,,,,,stim/centre.png,stim/incongRight.png,right,0,WN4 9HH,001,2022-05-08_23h20.40.366,ANT,2021.2.3,Win32,60.26637739,,,1,30,78,26,1,,,,,
0.95,left,1,0.2042,,,,,,stim/lower.png,stim/neutralRight.png,left,180,WN4 9HH,001,2022-05-08_23h20.40.366,ANT,2021.2.3,Win32,60.26637739,,,1,31,79,44,1,,,,,
1.05,left,1,0.0045,,,,,,stim/lower.png,stim/incongRight.png,left,180,WN4 9HH,001,2022-05-08_23h20.40.366,ANT,2021.2.3,Win32,60.26637739,,,1,32,80,28,1,,,,,
1.25,left,1,0.6597,,,,,,stim/centre.png,stim/neutralRight.png,left,180,WN4 9HH,001,2022-05-08_23h20.40.366,ANT,2021.2.3,Win32,60.26637739,,,1,33,81,46,1,,,,,
0.55,right,0,0.4552,,,,,,stim/blank.png,stim/incongLeft.png,left,0,WN4 9HH,001,2022-05-08_23h20.40.366,ANT,2021.2.3,Win32,60.26637739,,,1,34,82,19,1,,,,,
0.85,right,1,0.5372,,,,,,stim/centre.png,stim/incongLeft.png,right,180,WN4 9HH,001,2022-05-08_23h20.40.366,ANT,2021.2.3,Win32,60.26637739,,,1,35,83,22,1,,,,,
0.65,left,1,1.2039,,,,,,stim/centre.png,stim/neutralLeft.png,left,0,WN4 9HH,001,2022-05-08_23h20.40.366,ANT,2021.2.3,Win32,60.26637739,,,1,36,84,34,1,,,,,
1.55,left,1,0.46,,,,,,stim/upper.png,stim/neutralLeft.png,left,0,WN4 9HH,001,2022-05-08_23h20.40.366,ANT,2021.2.3,Win32,60.26637739,,,1,37,85,32,1,,,,,
0.65,right,1,0.4539,,,,,,stim/upper.png,stim/neutralRight.png,right,0,WN4 9HH,001,2022-05-08_23h20.40.366,ANT,2021.2.3,Win32,60.26637739,,,1,38,86,40,1,,,,,
0.65,right,1,0.3434,,,,,,stim/both.png,stim/congRight.png,right,0,WN4 9HH,001,2022-05-08_23h20.40.366,ANT,2021.2.3,Win32,60.26637739,,,1,39,87,9,1,,,,,
1.25,left,0,0.4752,,,,,,stim/lower.png,stim/incongLeft.png,right,180,WN4 9HH,001,2022-05-08_23h20.40.366,ANT,2021.2.3,Win32,60.26637739,,,1,40,88,20,1,,,,,
1.4,right,1,0.5217,,,,,,stim/centre.png,stim/congLeft.png,right,180,WN4 9HH,001,2022-05-08_23h20.40.366,ANT,2021.2.3,Win32,60.26637739,,,1,41,89,6,1,,,,,
0.45,right,1,0.4562,,,,,,stim/lower.png,stim/congLeft.png,right,180,WN4 9HH,001,2022-05-08_23h20.40.366,ANT,2021.2.3,Win32,60.26637739,,,1,42,90,4,1,,,,,
1,right,1,0.5343,,,,,,stim/blank.png,stim/incongRight.png,right,0,WN4 9HH,001,2022-05-08_23h20.40.366,ANT,2021.2.3,Win32,60.26637739,,,1,43,91,27,1,,,,,
1.2,left,1,0.6248,,,,,,stim/blank.png,stim/congLeft.png,left,0,WN4 9HH,001,2022-05-08_23h20.40.366,ANT,2021.2.3,Win32,60.26637739,,,1,44,92,3,1,,,,,
0.5,left,1,0.5365,,,,,,stim/both.png,stim/neutralRight.png,left,180,WN4 9HH,001,2022-05-08_23h20.40.366,ANT,2021.2.3,Win32,60.26637739,,,1,45,93,45,1,,,,,
1.5,right,1,0.4563,,,,,,stim/upper.png,stim/congRight.png,right,0,WN4 9HH,001,2022-05-08_23h20.40.366,ANT,2021.2.3,Win32,60.26637739,,,1,46,94,8,1,,,,,
1.15,right,0,0.3237,,,,,,stim/both.png,stim/neutralLeft.png,left,0,WN4 9HH,001,2022-05-08_23h20.40.366,ANT,2021.2.3,Win32,60.26637739,,,1,47,95,33,1,,,,,
,,,,,,,,,,,,,WN4 9HH,001,2022-05-08_23h20.40.366,ANT,2021.2.3,Win32,60.26637739,,,,,,,,1,0,1,0,1
0.4,left,1,0.4522,,,,,,stim/blank.png,stim/congLeft.png,left,0,WN4 9HH,001,2022-05-08_23h20.40.366,ANT,2021.2.3,Win32,60.26637739,,,0,0,0,3,1,,,,,
1.2,right,1,0.651,,,,,,stim/lower.png,stim/neutralLeft.png,right,180,WN4 9HH,001,2022-05-08_23h20.40.366,ANT,2021.2.3,Win32,60.26637739,,,0,1,1,36,1,,,,,
1.1,right,1,0.4575,,,,,,stim/blank.png,stim/congLeft.png,right,180,WN4 9HH,001,2022-05-08_23h20.40.366,ANT,2021.2.3,Win32,60.26637739,,,0,2,2,7,1,,,,,
1.1,left,1,0.4869,,,,,,stim/blank.png,stim/congRight.png,left,180,WN4 9HH,001,2022-05-08_23h20.40.366,ANT,2021.2.3,Win32,60.26637739,,,0,3,3,15,1,,,,,
0.7,right,1,0.4445,,,,,,stim/centre.png,stim/incongLeft.png,right,180,WN4 9HH,001,2022-05-08_23h20.40.366,ANT,2021.2.3,Win32,60.26637739,,,0,4,4,22,1,,,,,
1.45,left,1,0.6014,,,,,,stim/lower.png,stim/congRight.png,left,180,WN4 9HH,001,2022-05-08_23h20.40.366,ANT,2021.2.3,Win32,60.26637739,,,0,5,5,12,1,,,,,
1,left,1,0.4182,,,,,,stim/both.png,stim/congRight.png,left,180,WN4 9HH,001,2022-05-08_23h20.40.366,ANT,2021.2.3,Win32,60.26637739,,,0,6,6,13,1,,,,,
0.4,left,1,0.251,,,,,,stim/centre.png,stim/incongLeft.png,left,0,WN4 9HH,001,2022-05-08_23h20.40.366,ANT,2021.2.3,Win32,60.26637739,,,0,7,7,18,1,,,,,
0.65,left,1,0.7379,,,,,,stim/both.png,stim/neutralRight.png,left,180,WN4 9HH,001,2022-05-08_23h20.40.366,ANT,2021.2.3,Win32,60.26637739,,,0,8,8,45,1,,,,,
1.15,right,1,0.5214,,,,,,stim/upper.png,stim/congRight.png,right,0,WN4 9HH,001,2022-05-08_23h20.40.366,ANT,2021.2.3,Win32,60.26637739,,,0,9,9,8,1,,,,,
0.65,right,1,0.6279,,,,,,stim/both.png,stim/neutralLeft.png,right,180,WN4 9HH,001,2022-05-08_23h20.40.366,ANT,2021.2.3,Win32,60.26637739,,,0,10,10,37,1,,,,,
0.75,right,1,0.5897,,,,,,stim/centre.png,stim/incongRight.png,right,0,WN4 9HH,001,2022-05-08_23h20.40.366,ANT,2021.2.3,Win32,60.26637739,,,0,11,11,26,1,,,,,
0.8,left,1,0.4591,,,,,,stim/centre.png,stim/congLeft.png,left,0,WN4 9HH,001,2022-05-08_23h20.40.366,ANT,2021.2.3,Win32,60.26637739,,,0,12,12,2,1,,,,,
0.85,left,1,0.3678,,,,,,stim/both.png,stim/neutralLeft.png,left,0,WN4 9HH,001,2022-05-08_23h20.40.366,ANT,2021.2.3,Win32,60.26637739,,,0,13,13,33,1,,,,,
1.3,left,0,0.2796,,,,,,stim/blank.png,stim/neutralRight.png,right,0,WN4 9HH,001,2022-05-08_23h20.40.366,ANT,2021.2.3,Win32,60.26637739,,,0,14,14,43,1,,,,,
0.65,right,0,0.4351,,,,,,stim/blank.png,stim/neutralLeft.png,left,0,WN4 9HH,001,2022-05-08_23h20.40.366,ANT,2021.2.3,Win32,60.26637739,,,0,15,15,35,1,,,,,
0.7,left,1,0.5005,,,,,,stim/upper.png,stim/congLeft.png,left,0,WN4 9HH,001,2022-05-08_23h20.40.366,ANT,2021.2.3,Win32,60.26637739,,,0,16,16,0,1,,,,,
0.5,right,0,0.1269,,,,,,stim/upper.png,stim/incongLeft.png,left,0,WN4 9HH,001,2022-05-08_23h20.40.366,ANT,2021.2.3,Win32,60.26637739,,,0,17,17,16,1,,,,,
1,left,1,0.4509,,,,,,stim/lower.png,stim/neutralRight.png,left,180,WN4 9HH,001,2022-05-08_23h20.40.366,ANT,2021.2.3,Win32,60.26637739,,,0,18,18,44,1,,,,,
0.95,left,1,0.0269,,,,,,stim/both.png,stim/incongRight.png,left,180,WN4 9HH,001,2022-05-08_23h20.40.366,ANT,2021.2.3,Win32,60.26637739,,,0,19,19,29,1,,,,,
1.1,right,1,0.1704,,,,,,stim/both.png,stim/incongRight.png,right,0,WN4 9HH,001,2022-05-08_23h20.40.366,ANT,2021.2.3,Win32,60.26637739,,,0,20,20,25,1,,,,,
0.95,right,1,0.0121,,,,,,stim/centre.png,stim/congLeft.png,right,180,WN4 9HH,001,2022-05-08_23h20.40.366,ANT,2021.2.3,Win32,60.26637739,,,0,21,21,6,1,,,,,
1.3,left,1,0.0342,,,,,,stim/blank.png,stim/neutralRight.png,left,180,WN4 9HH,001,2022-05-08_23h20.40.366,ANT,2021.2.3,Win32,60.26637739,,,0,22,22,47,1,,,,,
1.45,right,0,0.0845,,,,,,stim/centre.png,stim/neutralLeft.png,left,0,WN4 9HH,001,2022-05-08_23h20.40.366,ANT,2021.2.3,Win32,60.26637739,,,0,23,23,34,1,,,,,
1.35,left,1,0.242,,,,,,stim/both.png,stim/incongLeft.png,left,0,WN4 9HH,001,2022-05-08_23h20.40.366,ANT,2021.2.3,Win32,60.26637739,,,0,24,24,17,1,,,,,
0.65,left,0,0.0673,,,,,,stim/blank.png,stim/congRight.png,right,0,WN4 9HH,001,2022-05-08_23h20.40.366,ANT,2021.2.3,Win32,60.26637739,,,0,25,25,11,1,,,,,
1.1,right,1,0.3878,,,,,,stim/both.png,stim/neutralRight.png,right,0,WN4 9HH,001,2022-05-08_23h20.40.366,ANT,2021.2.3,Win32,60.26637739,,,0,26,26,41,1,,,,,
0.9,left,0,0.037,,,,,,stim/blank.png,stim/neutralLeft.png,right,180,WN4 9HH,001,2022-05-08_23h20.40.366,ANT,2021.2.3,Win32,60.26637739,,,0,27,27,39,1,,,,,
1.3,right,1,0.036,,,,,,stim/both.png,stim/congRight.png,right,0,WN4 9HH,001,2022-05-08_23h20.40.366,ANT,2021.2.3,Win32,60.26637739,,,0,28,28,9,1,,,,,
0.5,right,0,0.2844,,,,,,stim/upper.png,stim/neutralLeft.png,left,0,WN4 9HH,001,2022-05-08_23h20.40.366,ANT,2021.2.3,Win32,60.26637739,,,0,29,29,32,1,,,,,
0.95,left,0,0.0573,,,,,,stim/lower.png,stim/incongLeft.png,right,180,WN4 9HH,001,2022-05-08_23h20.40.366,ANT,2021.2.3,Win32,60.26637739,,,0,30,30,20,1,,,,,
1,,0,,,,,,,stim/upper.png,stim/incongRight.png,right,0,WN4 9HH,001,2022-05-08_23h20.40.366,ANT,2021.2.3,Win32,60.26637739,,,0,31,31,24,1,,,,,
1.55,right,1,0.4844,,,,,,stim/both.png,stim/congLeft.png,right,180,WN4 9HH,001,2022-05-08_23h20.40.366,ANT,2021.2.3,Win32,60.26637739,,,0,32,32,5,1,,,,,
0.85,left,1,0.4726,,,,,,stim/both.png,stim/congLeft.png,left,0,WN4 9HH,001,2022-05-08_23h20.40.366,ANT,2021.2.3,Win32,60.26637739,,,0,33,33,1,1,,,,,
0.4,right,1,0.6682,,,,,,stim/centre.png,stim/congRight.png,right,0,WN4 9HH,001,2022-05-08_23h20.40.366,ANT,2021.2.3,Win32,60.26637739,,,0,34,34,10,1,,,,,
1.4,right,1,0.6209,,,,,,stim/lower.png,stim/congLeft.png,right,180,WN4 9HH,001,2022-05-08_23h20.40.366,ANT,2021.2.3,Win32,60.26637739,,,0,35,35,4,1,,,,,
1.35,left,1,0.7564,,,,,,stim/centre.png,stim/incongRight.png,left,180,WN4 9HH,001,2022-05-08_23h20.40.366,ANT,2021.2.3,Win32,60.26637739,,,0,36,36,30,1,,,,,
1.4,left,0,0.4111,,,,,,stim/blank.png,stim/incongLeft.png,right,180,WN4 9HH,001,2022-05-08_23h20.40.366,ANT,2021.2.3,Win32,60.26637739,,,0,37,37,23,1,,,,,
1.15,right,0,0.3375,,,,,,stim/lower.png,stim/incongRight.png,left,180,WN4 9HH,001,2022-05-08_23h20.40.366,ANT,2021.2.3,Win32,60.26637739,,,0,38,38,28,1,,,,,
0.8,right,1,0.4845,,,,,,stim/upper.png,stim/neutralRight.png,right,0,WN4 9HH,001,2022-05-08_23h20.40.366,ANT,2021.2.3,Win32,60.26637739,,,0,39,39,40,1,,,,,
1.25,right,1,0.6082,,,,,,stim/blank.png,stim/incongRight.png,right,0,WN4 9HH,001,2022-05-08_23h20.40.366,ANT,2021.2.3,Win32,60.26637739,,,0,40,40,27,1,,,,,
1.25,right,1,0.6679,,,,,,stim/both.png,stim/incongLeft.png,right,180,WN4 9HH,001,2022-05-08_23h20.40.366,ANT,2021.2.3,Win32,60.26637739,,,0,41,41,21,1,,,,,
1.25,right,1,0.001,,,,,,stim/centre.png,stim/neutralRight.png,right,0,WN4 9HH,001,2022-05-08_23h20.40.366,ANT,2021.2.3,Win32,60.26637739,,,0,42,42,42,1,,,,,
1.15,left,1,0.8256,,,,,,stim/blank.png,stim/incongLeft.png,left,0,WN4 9HH,001,2022-05-08_23h20.40.366,ANT,2021.2.3,Win32,60.26637739,,,0,43,43,19,1,,,,,
0.9,left,1,0.9899,,,,,,stim/blank.png,stim/incongRight.png,left,180,WN4 9HH,001,2022-05-08_23h20.40.366,ANT,2021.2.3,Win32,60.26637739,,,0,44,44,31,1,,,,,
0.7,left,1,0.1005,,,,,,stim/centre.png,stim/neutralRight.png,left,180,WN4 9HH,001,2022-05-08_23h20.40.366,ANT,2021.2.3,Win32,60.26637739,,,0,45,45,46,1,,,,,
0.55,,0,,,,,,,stim/centre.png,stim/congRight.png,left,180,WN4 9HH,001,2022-05-08_23h20.40.366,ANT,2021.2.3,Win32,60.26637739,,,0,46,46,14,1,,,,,
1.05,,0,,,,,,,stim/centre.png,stim/neutralLeft.png,right,180,WN4 9HH,001,2022-05-08_23h20.40.366,ANT,2021.2.3,Win32,60.26637739,,,0,47,47,38,1,,,,,
0.65,,0,,,,,,,stim/blank.png,stim/congLeft.png,left,0,WN4 9HH,001,2022-05-08_23h20.40.366,ANT,2021.2.3,Win32,60.26637739,,,1,0,48,3,1,,,,,
0.95,left,0,1.2535,,,,,,stim/both.png,stim/incongRight.png,right,0,WN4 9HH,001,2022-05-08_23h20.40.366,ANT,2021.2.3,Win32,60.26637739,,,1,1,49,25,1,,,,,
0.85,left,1,0.8589,,,,,,stim/both.png,stim/incongLeft.png,left,0,WN4 9HH,001,2022-05-08_23h20.40.366,ANT,2021.2.3,Win32,60.26637739,,,1,2,50,17,1,,,,,
0.6,right,0,0.2009,,,,,,stim/both.png,stim/neutralLeft.png,left,0,WN4 9HH,001,2022-05-08_23h20.40.366,ANT,2021.2.3,Win32,60.26637739,,,1,3,51,33,1,,,,,
0.75,left,0,0.1937,,,,,,stim/centre.png,stim/neutralLeft.png,right,180,WN4 9HH,001,2022-05-08_23h20.40.366,ANT,2021.2.3,Win32,60.26637739,,,1,4,52,38,1,,,,,
1.3,left,1,0.0009,,,,,,stim/both.png,stim/incongRight.png,left,180,WN4 9HH,001,2022-05-08_23h20.40.366,ANT,2021.2.3,Win32,60.26637739,,,1,5,53,29,1,,,,,
1.3,right,1,0.4015,,,,,,stim/upper.png,stim/neutralRight.png,right,0,WN4 9HH,001,2022-05-08_23h20.40.366,ANT,2021.2.3,Win32,60.26637739,,,1,6,54,40,1,,,,,
1.15,right,1,0.3385,,,,,,stim/upper.png,stim/congRight.png,right,0,WN4 9HH,001,2022-05-08_23h20.40.366,ANT,2021.2.3,Win32,60.26637739,,,1,7,55,8,1,,,,,
1.4,right,0,0.3843,,,,,,stim/centre.png,stim/incongRight.png,left,180,WN4 9HH,001,2022-05-08_23h20.40.366,ANT,2021.2.3,Win32,60.26637739,,,1,8,56,30,1,,,,,
0.55,left,1,0.6007,,,,,,stim/blank.png,stim/neutralRight.png,left,180,WN4 9HH,001,2022-05-08_23h20.40.366,ANT,2021.2.3,Win32,60.26637739,,,1,9,57,47,1,,,,,
0.85,left,1,0.5448,,,,,,stim/upper.png,stim/neutralLeft.png,left,0,WN4 9HH,001,2022-05-08_23h20.40.366,ANT,2021.2.3,Win32,60.26637739,,,1,10,58,32,1,,,,,
1.3,right,1,0.6915,,,,,,stim/centre.png,stim/congLeft.png,right,180,WN4 9HH,001,2022-05-08_23h20.40.366,ANT,2021.2.3,Win32,60.26637739,,,1,11,59,6,1,,,,,
1.5,left,1,0.4734,,,,,,stim/blank.png,stim/neutralLeft.png,left,0,WN4 9HH,001,2022-05-08_23h20.40.366,ANT,2021.2.3,Win32,60.26637739,,,1,12,60,35,1,,,,,
0.95,left,0,0.0233,,,,,,stim/blank.png,stim/congRight.png,right,0,WN4 9HH,001,2022-05-08_23h20.40.366,ANT,2021.2.3,Win32,60.26637739,,,1,13,61,11,1,,,,,
0.85,right,1,0.7347,,,,,,stim/centre.png,stim/incongLeft.png,right,180,WN4 9HH,001,2022-05-08_23h20.40.366,ANT,2021.2.3,Win32,60.26637739,,,1,14,62,22,1,,,,,
0.45,left,1,1.4175,,,,,,stim/blank.png,stim/incongRight.png,left,180,WN4 9HH,001,2022-05-08_23h20.40.366,ANT,2021.2.3,Win32,60.26637739,,,1,15,63,31,1,,,,,
1.15,right,1,1.0343,,,,,,stim/blank.png,stim/neutralLeft.png,right,180,WN4 9HH,001,2022-05-08_23h20.40.366,ANT,2021.2.3,Win32,60.26637739,,,1,16,64,39,1,,,,,
0.45,left,1,0.4598,,,,,,stim/centre.png,stim/congLeft.png,left,0,WN4 9HH,001,2022-05-08_23h20.40.366,ANT,2021.2.3,Win32,60.26637739,,,1,17,65,2,1,,,,,
1.4,left,1,0.7965,,,,,,stim/lower.png,stim/neutralRight.png,left,180,WN4 9HH,001,2022-05-08_23h20.40.366,ANT,2021.2.3,Win32,60.26637739,,,1,18,66,44,1,,,,,
1.2,left,1,0.6181,,,,,,stim/both.png,stim/congRight.png,left,180,WN4 9HH,001,2022-05-08_23h20.40.366,ANT,2021.2.3,Win32,60.26637739,,,1,19,67,13,1,,,,,
1.5,,0,,,,,,,stim/upper.png,stim/incongRight.png,right,0,WN4 9HH,001,2022-05-08_23h20.40.366,ANT,2021.2.3,Win32,60.26637739,,,1,20,68,24,1,,,,,
0.55,,0,,,,,,,stim/blank.png,stim/congLeft.png,right,180,WN4 9HH,001,2022-05-08_23h20.40.366,ANT,2021.2.3,Win32,60.26637739,,,1,21,69,7,1,,,,,
0.95,,0,,,,,,,stim/blank.png,stim/congRight.png,left,180,WN4 9HH,001,2022-05-08_23h20.40.366,ANT,2021.2.3,Win32,60.26637739,,,1,22,70,15,1,,,,,
1.35,,0,,,,,,,stim/blank.png,stim/incongLeft.png,left,0,WN4 9HH,001,2022-05-08_23h20.40.366,ANT,2021.2.3,Win32,60.26637739,,,1,23,71,19,1,,,,,
1.4,,0,,,,,,,stim/centre.png,stim/congRight.png,right,0,WN4 9HH,001,2022-05-08_23h20.40.366,ANT,2021.2.3,Win32,60.26637739,,,1,24,72,10,1,,,,,
1.2,,0,,,,,,,stim/lower.png,stim/congRight.png,left,180,WN4 9HH,001,2022-05-08_23h20.40.366,ANT,2021.2.3,Win32,60.26637739,,,1,25,73,12,1,,,,,
0.45,,0,,,,,,,stim/blank.png,stim/neutralRight.png,right,0,WN4 9HH,001,2022-05-08_23h20.40.366,ANT,2021.2.3,Win32,60.26637739,,,1,26,74,43,1,,,,,
0.9,,0,,,,,,,stim/both.png,stim/neutralLeft.png,right,180,WN4 9HH,001,2022-05-08_23h20.40.366,ANT,2021.2.3,Win32,60.26637739,,,1,27,75,37,1,,,,,
0.85,,0,,,,,,,stim/lower.png,stim/incongLeft.png,right,180,WN4 9HH,001,2022-05-08_23h20.40.366,ANT,2021.2.3,Win32,60.26637739,,,1,28,76,20,1,,,,,
0.8,,0,,,,,,,stim/lower.png,stim/congLeft.png,right,180,WN4 9HH,001,2022-05-08_23h20.40.366,ANT,2021.2.3,Win32,60.26637739,,,1,29,77,4,1,,,,,
0.8,left,1,1.4066,,,,,,stim/upper.png,stim/congLeft.png,left,0,WN4 9HH,001,2022-05-08_23h20.40.366,ANT,2021.2.3,Win32,60.26637739,,,1,30,78,0,1,,,,,
1.45,left,0,0.6233,,,,,,stim/blank.png,stim/incongLeft.png,right,180,WN4 9HH,001,2022-05-08_23h20.40.366,ANT,2021.2.3,Win32,60.26637739,,,1,31,79,23,1,,,,,
1.55,right,1,0.3847,,,,,,stim/both.png,stim/neutralRight.png,right,0,WN4 9HH,001,2022-05-08_23h20.40.366,ANT,2021.2.3,Win32,60.26637739,,,1,32,80,41,1,,,,,
0.55,left,1,0.5741,,,,,,stim/both.png,stim/neutralRight.png,left,180,WN4 9HH,001,2022-05-08_23h20.40.366,ANT,2021.2.3,Win32,60.26637739,,,1,33,81,45,1,,,,,
0.6,left,1,0.5356,,,,,,stim/centre.png,stim/neutralLeft.png,left,0,WN4 9HH,001,2022-05-08_23h20.40.366,ANT,2021.2.3,Win32,60.26637739,,,1,34,82,34,1,,,,,
0.8,right,1,0.4839,,,,,,stim/lower.png,stim/neutralLeft.png,right,180,WN4 9HH,001,2022-05-08_23h20.40.366,ANT,2021.2.3,Win32,60.26637739,,,1,35,83,36,1,,,,,
1.5,right,1,0.5181,,,,,,stim/centre.png,stim/neutralRight.png,right,0,WN4 9HH,001,2022-05-08_23h20.40.366,ANT,2021.2.3,Win32,60.26637739,,,1,36,84,42,1,,,,,
1.25,left,1,0.5847,,,,,,stim/centre.png,stim/neutralRight.png,left,180,WN4 9HH,001,2022-05-08_23h20.40.366,ANT,2021.2.3,Win32,60.26637739,,,1,37,85,46,1,,,,,
1.1,right,0,0.5177,,,,,,stim/centre.png,stim/incongLeft.png,left,0,WN4 9HH,001,2022-05-08_23h20.40.366,ANT,2021.2.3,Win32,60.26637739,,,1,38,86,18,1,,,,,
1.05,right,1,0.5496,,,,,,stim/both.png,stim/congLeft.png,right,180,WN4 9HH,001,2022-05-08_23h20.40.366,ANT,2021.2.3,Win32,60.26637739,,,1,39,87,5,1,,,,,
1.45,right,0,0.468,,,,,,stim/upper.png,stim/incongLeft.png,left,0,WN4 9HH,001,2022-05-08_23h20.40.366,ANT,2021.2.3,Win32,60.26637739,,,1,40,88,16,1,,,,,
1.3,left,0,0.3344,,,,,,stim/centre.png,stim/incongRight.png,right,0,WN4 9HH,001,2022-05-08_23h20.40.366,ANT,2021.2.3,Win32,60.26637739,,,1,41,89,26,1,,,,,
1.05,right,1,0.3755,,,,,,stim/both.png,stim/congRight.png,right,0,WN4 9HH,001,2022-05-08_23h20.40.366,ANT,2021.2.3,Win32,60.26637739,,,1,42,90,9,1,,,,,
1.5,left,1,0.4918,,,,,,stim/both.png,stim/congLeft.png,left,0,WN4 9HH,001,2022-05-08_23h20.40.366,ANT,2021.2.3,Win32,60.26637739,,,1,43,91,1,1,,,,,
1,left,0,0.3847,,,,,,stim/blank.png,stim/incongRight.png,right,0,WN4 9HH,001,2022-05-08_23h20.40.366,ANT,2021.2.3,Win32,60.26637739,,,1,44,92,27,1,,,,,
1.3,right,0,0.4924,,,,,,stim/lower.png,stim/incongRight.png,left,180,WN4 9HH,001,2022-05-08_23h20.40.366,ANT,2021.2.3,Win32,60.26637739,,,1,45,93,28,1,,,,,
1.3,left,1,0.4908,,,,,,stim/centre.png,stim/congRight.png,left,180,WN4 9HH,001,2022-05-08_23h20.40.366,ANT,2021.2.3,Win32,60.26637739,,,1,46,94,14,1,,,,,
1.45,left,0,0.3034,,,,,,stim/both.png,stim/incongLeft.png,right,180,WN4 9HH,001,2022-05-08_23h20.40.366,ANT,2021.2.3,Win32,60.26637739,,,1,47,95,21,1,,,,,
,,,,,,,,,,,,,WN4 9HH,001,2022-05-08_23h20.40.366,ANT,2021.2.3,Win32,60.26637739,,,,,,,,2,0,2,0,1
